,subject,rt,trial_type,trial_index,time_elapsed,condition,assignment,responses,stimType,stimNum,categorization,numeric_categorization,order,Understood,group,trial_condition,exp.inf.1,spon.1,rc.1,exp.inf.2,spon.2,rc.2,spon.true,exp.inf.mean,rc.mean,spon.mean,Congruent,Congruence,numeric_categorization2,exp_group
1,383,4165,survey-multi-choice,3,86433,Speaker Aware,4b,"{""Q0"":""Yes""}",belief,2,Yes,1,1,0,group1,speaker_aware,6,0,10,9,1,10,0,7.5,10,0.5,TRUE,congruent,0,Knowledge
2,383,10326,survey-multi-choice,5,126526,Speaker Unaware,4b,"{""Q0"":""No""}",no_belief,1,No,0,2,0,group1,speaker_unaware,6,0,10,9,1,10,0,7.5,10,0.5,TRUE,congruent,1,Knowledge
3,383,11827,survey-multi-choice,7,142215,Speaker Aware,4b,"{""Q0"":""Yes""}",belief,8,Yes,1,3,0,group1,speaker_aware,6,0,10,9,1,10,0,7.5,10,0.5,TRUE,congruent,0,Knowledge
4,383,12692,survey-multi-choice,9,200663,Speaker Unaware,4b,"{""Q0"":""No""}",no_belief,4,No,0,4,0,group1,speaker_unaware,6,0,10,9,1,10,0,7.5,10,0.5,TRUE,congruent,1,Knowledge
5,383,5304,survey-multi-choice,11,221929,Speaker Unaware,4b,"{""Q0"":""No""}",no_belief,6,No,0,5,0,group1,speaker_unaware,6,0,10,9,1,10,0,7.5,10,0.5,TRUE,congruent,1,Knowledge
6,383,2715,survey-multi-choice,13,264556,Speaker Unaware,4b,"{""Q0"":""No""}",no_belief,3,No,0,6,0,group1,speaker_unaware,6,0,10,9,1,10,0,7.5,10,0.5,TRUE,congruent,1,Knowledge
7,383,2618,survey-multi-choice,15,305650,Speaker Aware,4b,"{""Q0"":""Yes""}",belief,5,Yes,1,7,0,group1,speaker_aware,6,0,10,9,1,10,0,7.5,10,0.5,TRUE,congruent,0,Knowledge
8,383,8123,survey-multi-choice,17,337875,Speaker Aware,4b,"{""Q0"":""Yes""}",belief,7,Yes,1,8,0,group1,speaker_aware,6,0,10,9,1,10,0,7.5,10,0.5,TRUE,congruent,0,Knowledge
9,674,2468,survey-multi-choice,3,42588,Speaker Aware,4a,"{""Q0"":""No""}",belief,7,No,0,1,0,group1,speaker_aware,3,1,10,4,1,9,1,3.5,9.5,1,TRUE,congruent,0,Inference
10,674,1978,survey-multi-choice,5,64660,Speaker Aware,4a,"{""Q0"":""No""}",belief,8,No,0,2,0,group1,speaker_aware,3,1,10,4,1,9,1,3.5,9.5,1,TRUE,congruent,0,Inference
11,674,1115,survey-multi-choice,7,89988,Speaker Aware,4a,"{""Q0"":""No""}",belief,2,No,0,3,0,group1,speaker_aware,3,1,10,4,1,9,1,3.5,9.5,1,TRUE,congruent,0,Inference
12,674,1317,survey-multi-choice,9,97008,Speaker Unaware,4a,"{""Q0"":""Yes""}",no_belief,3,Yes,1,4,0,group1,speaker_unaware,3,1,10,4,1,9,1,3.5,9.5,1,TRUE,congruent,1,Inference
13,674,1060,survey-multi-choice,11,101718,Speaker Unaware,4a,"{""Q0"":""Yes""}",no_belief,6,Yes,1,5,0,group1,speaker_unaware,3,1,10,4,1,9,1,3.5,9.5,1,TRUE,congruent,1,Inference
14,674,1840,survey-multi-choice,13,108341,Speaker Aware,4a,"{""Q0"":""No""}",belief,5,No,0,6,0,group1,speaker_aware,3,1,10,4,1,9,1,3.5,9.5,1,TRUE,congruent,0,Inference
15,674,1990,survey-multi-choice,15,115406,Speaker Unaware,4a,"{""Q0"":""No""}",no_belief,4,No,0,7,0,group1,speaker_unaware,3,1,10,4,1,9,1,3.5,9.5,1,FALSE,incongruent,0,Inference
16,674,1624,survey-multi-choice,17,123402,Speaker Unaware,4a,"{""Q0"":""No""}",no_belief,1,No,0,8,0,group1,speaker_unaware,3,1,10,4,1,9,1,3.5,9.5,1,FALSE,incongruent,0,Inference
17,1918,2804,survey-multi-choice,3,29205,Speaker Aware,4b,"{""Q0"":""Yes""}",belief,4,Yes,1,1,0,group2,speaker_aware,3,0,10,5,1,9,0,4,9.5,0.5,TRUE,congruent,0,Knowledge
18,1918,2709,survey-multi-choice,5,46743,Speaker Unaware,4b,"{""Q0"":""No""}",no_belief,2,No,0,2,0,group2,speaker_unaware,3,0,10,5,1,9,0,4,9.5,0.5,TRUE,congruent,1,Knowledge
19,1918,2560,survey-multi-choice,7,56692,Speaker Aware,4b,"{""Q0"":""No""}",belief,6,No,0,3,0,group2,speaker_aware,3,0,10,5,1,9,0,4,9.5,0.5,FALSE,incongruent,1,Knowledge
20,1918,4113,survey-multi-choice,9,82977,Speaker Aware,4b,"{""Q0"":""Yes""}",belief,3,Yes,1,4,0,group2,speaker_aware,3,0,10,5,1,9,0,4,9.5,0.5,TRUE,congruent,0,Knowledge
21,1918,2786,survey-multi-choice,11,103253,Speaker Aware,4b,"{""Q0"":""Yes""}",belief,1,Yes,1,5,0,group2,speaker_aware,3,0,10,5,1,9,0,4,9.5,0.5,TRUE,congruent,0,Knowledge
22,1918,2541,survey-multi-choice,13,149905,Speaker Unaware,4b,"{""Q0"":""Yes""}",no_belief,5,Yes,1,6,0,group2,speaker_unaware,3,0,10,5,1,9,0,4,9.5,0.5,FALSE,incongruent,0,Knowledge
23,1918,1830,survey-multi-choice,15,200889,Speaker Unaware,4b,"{""Q0"":""Yes""}",no_belief,8,Yes,1,7,0,group2,speaker_unaware,3,0,10,5,1,9,0,4,9.5,0.5,FALSE,incongruent,0,Knowledge
24,1918,2217,survey-multi-choice,17,218409,Speaker Unaware,4b,"{""Q0"":""No""}",no_belief,7,No,0,8,0,group2,speaker_unaware,3,0,10,5,1,9,0,4,9.5,0.5,TRUE,congruent,1,Knowledge
25,2006,5471,survey-multi-choice,3,180906,Speaker Aware,4b,"{""Q0"":""Yes""}",belief,2,Yes,1,1,0,group1,speaker_aware,7,0,10,9,1,8,0,8,9,0.5,TRUE,congruent,0,Knowledge
26,2006,10511,survey-multi-choice,5,222795,Speaker Aware,4b,"{""Q0"":""Yes""}",belief,8,Yes,1,2,0,group1,speaker_aware,7,0,10,9,1,8,0,8,9,0.5,TRUE,congruent,0,Knowledge
27,2006,7141,survey-multi-choice,7,253166,Speaker Unaware,4b,"{""Q0"":""No""}",no_belief,1,No,0,3,0,group1,speaker_unaware,7,0,10,9,1,8,0,8,9,0.5,TRUE,congruent,1,Knowledge
28,2006,4094,survey-multi-choice,9,278202,Speaker Aware,4b,"{""Q0"":""Yes""}",belief,7,Yes,1,4,0,group1,speaker_aware,7,0,10,9,1,8,0,8,9,0.5,TRUE,congruent,0,Knowledge
29,2006,3203,survey-multi-choice,11,304966,Speaker Unaware,4b,"{""Q0"":""No""}",no_belief,4,No,0,5,0,group1,speaker_unaware,7,0,10,9,1,8,0,8,9,0.5,TRUE,congruent,1,Knowledge
30,2006,10338,survey-multi-choice,13,359576,Speaker Aware,4b,"{""Q0"":""Yes""}",belief,5,Yes,1,6,0,group1,speaker_aware,7,0,10,9,1,8,0,8,9,0.5,TRUE,congruent,0,Knowledge
31,2006,2269,survey-multi-choice,15,400063,Speaker Unaware,4b,"{""Q0"":""No""}",no_belief,6,No,0,7,0,group1,speaker_unaware,7,0,10,9,1,8,0,8,9,0.5,TRUE,congruent,1,Knowledge
32,2006,3870,survey-multi-choice,17,491282,Speaker Unaware,4b,"{""Q0"":""No""}",no_belief,3,No,0,8,0,group1,speaker_unaware,7,0,10,9,1,8,0,8,9,0.5,TRUE,congruent,1,Knowledge
33,3268,3099,survey-multi-choice,3,86688,Speaker Unaware,4a,"{""Q0"":""Yes""}",no_belief,3,Yes,1,1,0,group1,speaker_unaware,10,0,8,11,1,9,0,10.5,8.5,0.5,TRUE,congruent,1,Inference
34,3268,9686,survey-multi-choice,5,121708,Speaker Aware,4a,"{""Q0"":""Yes""}",belief,8,Yes,1,2,0,group1,speaker_aware,10,0,8,11,1,9,0,10.5,8.5,0.5,FALSE,incongruent,1,Inference
35,3268,2779,survey-multi-choice,7,146925,Speaker Unaware,4a,"{""Q0"":""Yes""}",no_belief,4,Yes,1,3,0,group1,speaker_unaware,10,0,8,11,1,9,0,10.5,8.5,0.5,TRUE,congruent,1,Inference
36,3268,2497,survey-multi-choice,9,176203,Speaker Unaware,4a,"{""Q0"":""Yes""}",no_belief,1,Yes,1,4,0,group1,speaker_unaware,10,0,8,11,1,9,0,10.5,8.5,0.5,TRUE,congruent,1,Inference
37,3268,2171,survey-multi-choice,11,202249,Speaker Unaware,4a,"{""Q0"":""Yes""}",no_belief,6,Yes,1,5,0,group1,speaker_unaware,10,0,8,11,1,9,0,10.5,8.5,0.5,TRUE,congruent,1,Inference
38,3268,4757,survey-multi-choice,13,240051,Speaker Aware,4a,"{""Q0"":""No""}",belief,5,No,0,6,0,group1,speaker_aware,10,0,8,11,1,9,0,10.5,8.5,0.5,TRUE,congruent,0,Inference
39,3268,2405,survey-multi-choice,15,259853,Speaker Aware,4a,"{""Q0"":""No""}",belief,7,No,0,7,0,group1,speaker_aware,10,0,8,11,1,9,0,10.5,8.5,0.5,TRUE,congruent,0,Inference
40,3268,2086,survey-multi-choice,17,288480,Speaker Aware,4a,"{""Q0"":""No""}",belief,2,No,0,8,0,group1,speaker_aware,10,0,8,11,1,9,0,10.5,8.5,0.5,TRUE,congruent,0,Inference
41,3415,5373,survey-multi-choice,3,112127,Speaker Aware,4b,"{""Q0"":""Yes""}",belief,2,Yes,1,1,0,group1,speaker_aware,5,0,8,7,0,8,0,6,8,0,TRUE,congruent,0,Knowledge
42,3415,8694,survey-multi-choice,5,125838,Speaker Unaware,4b,"{""Q0"":""No""}",no_belief,3,No,0,2,0,group1,speaker_unaware,5,0,8,7,0,8,0,6,8,0,TRUE,congruent,1,Knowledge
43,3415,2566,survey-multi-choice,7,149998,Speaker Unaware,4b,"{""Q0"":""No""}",no_belief,6,No,0,3,0,group1,speaker_unaware,5,0,8,7,0,8,0,6,8,0,TRUE,congruent,1,Knowledge
44,3415,3030,survey-multi-choice,9,179934,Speaker Unaware,4b,"{""Q0"":""No""}",no_belief,1,No,0,4,0,group1,speaker_unaware,5,0,8,7,0,8,0,6,8,0,TRUE,congruent,1,Knowledge
45,3415,3486,survey-multi-choice,11,249830,Speaker Unaware,4b,"{""Q0"":""No""}",no_belief,4,No,0,5,0,group1,speaker_unaware,5,0,8,7,0,8,0,6,8,0,TRUE,congruent,1,Knowledge
46,3415,3150,survey-multi-choice,13,304038,Speaker Aware,4b,"{""Q0"":""Yes""}",belief,5,Yes,1,6,0,group1,speaker_aware,5,0,8,7,0,8,0,6,8,0,TRUE,congruent,0,Knowledge
47,3415,2813,survey-multi-choice,15,374494,Speaker Aware,4b,"{""Q0"":""Yes""}",belief,7,Yes,1,7,0,group1,speaker_aware,5,0,8,7,0,8,0,6,8,0,TRUE,congruent,0,Knowledge
48,3415,3270,survey-multi-choice,17,402942,Speaker Aware,4b,"{""Q0"":""No""}",belief,8,No,0,8,0,group1,speaker_aware,5,0,8,7,0,8,0,6,8,0,FALSE,incongruent,1,Knowledge
49,3542,7538,survey-multi-choice,3,183566,Speaker Aware,4a,"{""Q0"":""Yes""}",belief,3,Yes,1,1,0,group2,speaker_aware,11,0,10,10,1,10,0,10.5,10,0.5,FALSE,incongruent,1,Inference
50,3542,3407,survey-multi-choice,5,225201,Speaker Unaware,4a,"{""Q0"":""Yes""}",no_belief,8,Yes,1,2,0,group2,speaker_unaware,11,0,10,10,1,10,0,10.5,10,0.5,TRUE,congruent,1,Inference
51,3542,2888,survey-multi-choice,7,254778,Speaker Aware,4a,"{""Q0"":""Yes""}",belief,4,Yes,1,3,0,group2,speaker_aware,11,0,10,10,1,10,0,10.5,10,0.5,FALSE,incongruent,1,Inference
52,3542,2298,survey-multi-choice,9,286117,Speaker Unaware,4a,"{""Q0"":""Yes""}",no_belief,2,Yes,1,4,0,group2,speaker_unaware,11,0,10,10,1,10,0,10.5,10,0.5,TRUE,congruent,1,Inference
53,3542,1955,survey-multi-choice,11,312474,Speaker Unaware,4a,"{""Q0"":""Yes""}",no_belief,7,Yes,1,5,0,group2,speaker_unaware,11,0,10,10,1,10,0,10.5,10,0.5,TRUE,congruent,1,Inference
54,3542,1878,survey-multi-choice,13,337252,Speaker Aware,4a,"{""Q0"":""No""}",belief,1,No,0,6,0,group2,speaker_aware,11,0,10,10,1,10,0,10.5,10,0.5,TRUE,congruent,0,Inference
55,3542,4915,survey-multi-choice,15,369473,Speaker Unaware,4a,"{""Q0"":""Yes""}",no_belief,5,Yes,1,7,0,group2,speaker_unaware,11,0,10,10,1,10,0,10.5,10,0.5,TRUE,congruent,1,Inference
56,3542,16515,survey-multi-choice,17,401750,Speaker Aware,4a,"{""Q0"":""No""}",belief,6,No,0,8,0,group2,speaker_aware,11,0,10,10,1,10,0,10.5,10,0.5,TRUE,congruent,0,Inference
57,3674,2779,survey-multi-choice,3,119036,Speaker Aware,4b,"{""Q0"":""Yes""}",belief,3,Yes,1,1,0,group2,speaker_aware,4,0,9,4,1,8,0,4,8.5,0.5,TRUE,congruent,0,Knowledge
58,3674,3898,survey-multi-choice,5,140824,Speaker Aware,4b,"{""Q0"":""Yes""}",belief,1,Yes,1,2,0,group2,speaker_aware,4,0,9,4,1,8,0,4,8.5,0.5,TRUE,congruent,0,Knowledge
59,3674,3996,survey-multi-choice,7,169628,Speaker Unaware,4b,"{""Q0"":""No""}",no_belief,5,No,0,3,0,group2,speaker_unaware,4,0,9,4,1,8,0,4,8.5,0.5,TRUE,congruent,1,Knowledge
60,3674,4019,survey-multi-choice,9,198658,Speaker Unaware,4b,"{""Q0"":""No""}",no_belief,8,No,0,4,0,group2,speaker_unaware,4,0,9,4,1,8,0,4,8.5,0.5,TRUE,congruent,1,Knowledge
61,3674,3902,survey-multi-choice,11,223538,Speaker Unaware,4b,"{""Q0"":""Yes""}",no_belief,2,Yes,1,5,0,group2,speaker_unaware,4,0,9,4,1,8,0,4,8.5,0.5,FALSE,incongruent,0,Knowledge
62,3674,2615,survey-multi-choice,13,235832,Speaker Aware,4b,"{""Q0"":""No""}",belief,6,No,0,6,0,group2,speaker_aware,4,0,9,4,1,8,0,4,8.5,0.5,FALSE,incongruent,1,Knowledge
63,3674,2957,survey-multi-choice,15,257482,Speaker Unaware,4b,"{""Q0"":""No""}",no_belief,7,No,0,7,0,group2,speaker_unaware,4,0,9,4,1,8,0,4,8.5,0.5,TRUE,congruent,1,Knowledge
64,3674,3423,survey-multi-choice,17,281161,Speaker Aware,4b,"{""Q0"":""Yes""}",belief,4,Yes,1,8,0,group2,speaker_aware,4,0,9,4,1,8,0,4,8.5,0.5,TRUE,congruent,0,Knowledge
65,6015,8683,survey-multi-choice,3,37350,Speaker Unaware,4a,"{""Q0"":""No""}",no_belief,4,No,0,1,0,group1,speaker_unaware,10,0,10,13,1,10,0,11.5,10,0.5,FALSE,incongruent,0,Inference
66,6015,5605,survey-multi-choice,5,47197,Speaker Aware,4a,"{""Q0"":""Yes""}",belief,5,Yes,1,2,0,group1,speaker_aware,10,0,10,13,1,10,0,11.5,10,0.5,FALSE,incongruent,1,Inference
67,6015,2142,survey-multi-choice,7,65021,Speaker Unaware,4a,"{""Q0"":""No""}",no_belief,1,No,0,3,0,group1,speaker_unaware,10,0,10,13,1,10,0,11.5,10,0.5,FALSE,incongruent,0,Inference
68,6015,1668,survey-multi-choice,9,75261,Speaker Aware,4a,"{""Q0"":""Yes""}",belief,8,Yes,1,4,0,group1,speaker_aware,10,0,10,13,1,10,0,11.5,10,0.5,FALSE,incongruent,1,Inference
69,6015,2156,survey-multi-choice,11,90141,Speaker Aware,4a,"{""Q0"":""No""}",belief,7,No,0,5,0,group1,speaker_aware,10,0,10,13,1,10,0,11.5,10,0.5,TRUE,congruent,0,Inference
70,6015,1434,survey-multi-choice,13,105901,Speaker Unaware,4a,"{""Q0"":""No""}",no_belief,3,No,0,6,0,group1,speaker_unaware,10,0,10,13,1,10,0,11.5,10,0.5,FALSE,incongruent,0,Inference
71,6015,2055,survey-multi-choice,15,114614,Speaker Aware,4a,"{""Q0"":""No""}",belief,2,No,0,7,0,group1,speaker_aware,10,0,10,13,1,10,0,11.5,10,0.5,TRUE,congruent,0,Inference
72,6015,1292,survey-multi-choice,17,127989,Speaker Unaware,4a,"{""Q0"":""Yes""}",no_belief,6,Yes,1,8,0,group1,speaker_unaware,10,0,10,13,1,10,0,11.5,10,0.5,TRUE,congruent,1,Inference
73,8020,5624,survey-multi-choice,3,289668,Speaker Aware,4b,"{""Q0"":""Yes""}",belief,5,Yes,1,1,0,group1,speaker_aware,6,0,8,8,1,8,0,7,8,0.5,TRUE,congruent,0,Knowledge
74,8020,4279,survey-multi-choice,5,337452,Speaker Aware,4b,"{""Q0"":""Yes""}",belief,2,Yes,1,2,0,group1,speaker_aware,6,0,8,8,1,8,0,7,8,0.5,TRUE,congruent,0,Knowledge
75,8020,3181,survey-multi-choice,7,373655,Speaker Unaware,4b,"{""Q0"":""No""}",no_belief,1,No,0,3,0,group1,speaker_unaware,6,0,8,8,1,8,0,7,8,0.5,TRUE,congruent,1,Knowledge
76,8020,2484,survey-multi-choice,9,414438,Speaker Unaware,4b,"{""Q0"":""No""}",no_belief,4,No,0,4,0,group1,speaker_unaware,6,0,8,8,1,8,0,7,8,0.5,TRUE,congruent,1,Knowledge
77,8020,3000,survey-multi-choice,11,463234,Speaker Aware,4b,"{""Q0"":""Yes""}",belief,7,Yes,1,5,0,group1,speaker_aware,6,0,8,8,1,8,0,7,8,0.5,TRUE,congruent,0,Knowledge
78,8020,3238,survey-multi-choice,13,517366,Speaker Unaware,4b,"{""Q0"":""No""}",no_belief,3,No,0,6,0,group1,speaker_unaware,6,0,8,8,1,8,0,7,8,0.5,TRUE,congruent,1,Knowledge
79,8020,2384,survey-multi-choice,15,536611,Speaker Unaware,4b,"{""Q0"":""No""}",no_belief,6,No,0,7,0,group1,speaker_unaware,6,0,8,8,1,8,0,7,8,0.5,TRUE,congruent,1,Knowledge
80,8020,3346,survey-multi-choice,17,580906,Speaker Aware,4b,"{""Q0"":""No""}",belief,8,No,0,8,0,group1,speaker_aware,6,0,8,8,1,8,0,7,8,0.5,FALSE,incongruent,1,Knowledge
81,8967,4231,survey-multi-choice,3,372219,Speaker Aware,4b,"{""Q0"":""No""}",belief,8,No,0,1,0,group1,speaker_aware,1,0,8,2,1,6,0,1.5,7,0.5,FALSE,incongruent,1,Knowledge
82,8967,2272,survey-multi-choice,5,466587,Speaker Aware,4b,"{""Q0"":""Yes""}",belief,7,Yes,1,2,0,group1,speaker_aware,1,0,8,2,1,6,0,1.5,7,0.5,TRUE,congruent,0,Knowledge
83,8967,2288,survey-multi-choice,7,479744,Speaker Unaware,4b,"{""Q0"":""No""}",no_belief,6,No,0,3,0,group1,speaker_unaware,1,0,8,2,1,6,0,1.5,7,0.5,TRUE,congruent,1,Knowledge
84,8967,7725,survey-multi-choice,9,512495,Speaker Aware,4b,"{""Q0"":""No""}",belief,2,No,0,4,0,group1,speaker_aware,1,0,8,2,1,6,0,1.5,7,0.5,FALSE,incongruent,1,Knowledge
85,8967,2244,survey-multi-choice,11,533450,Speaker Unaware,4b,"{""Q0"":""No""}",no_belief,1,No,0,5,0,group1,speaker_unaware,1,0,8,2,1,6,0,1.5,7,0.5,TRUE,congruent,1,Knowledge
86,8967,2235,survey-multi-choice,13,557636,Speaker Unaware,4b,"{""Q0"":""No""}",no_belief,4,No,0,6,0,group1,speaker_unaware,1,0,8,2,1,6,0,1.5,7,0.5,TRUE,congruent,1,Knowledge
87,8967,5350,survey-multi-choice,15,587888,Speaker Unaware,4b,"{""Q0"":""No""}",no_belief,3,No,0,7,0,group1,speaker_unaware,1,0,8,2,1,6,0,1.5,7,0.5,TRUE,congruent,1,Knowledge
88,8967,2349,survey-multi-choice,17,630354,Speaker Aware,4b,"{""Q0"":""Yes""}",belief,5,Yes,1,8,0,group1,speaker_aware,1,0,8,2,1,6,0,1.5,7,0.5,TRUE,congruent,0,Knowledge
89,9606,7230,survey-multi-choice,3,143949,Speaker Aware,4a,"{""Q0"":""No""}",belief,4,No,0,1,0,group2,speaker_aware,4,1,10,2,1,10,1,3,10,1,TRUE,congruent,0,Inference
90,9606,3312,survey-multi-choice,5,193652,Speaker Unaware,4a,"{""Q0"":""Yes""}",no_belief,5,Yes,1,2,0,group2,speaker_unaware,4,1,10,2,1,10,1,3,10,1,TRUE,congruent,1,Inference
91,9606,4303,survey-multi-choice,7,224971,Speaker Aware,4a,"{""Q0"":""No""}",belief,1,No,0,3,0,group2,speaker_aware,4,1,10,2,1,10,1,3,10,1,TRUE,congruent,0,Inference
92,9606,5362,survey-multi-choice,9,267636,Speaker Aware,4a,"{""Q0"":""No""}",belief,3,No,0,4,0,group2,speaker_aware,4,1,10,2,1,10,1,3,10,1,TRUE,congruent,0,Inference
93,9606,5881,survey-multi-choice,11,314141,Speaker Unaware,4a,"{""Q0"":""Yes""}",no_belief,2,Yes,1,5,0,group2,speaker_unaware,4,1,10,2,1,10,1,3,10,1,TRUE,congruent,1,Inference
94,9606,2316,survey-multi-choice,13,331522,Speaker Aware,4a,"{""Q0"":""Yes""}",belief,6,Yes,1,6,0,group2,speaker_aware,4,1,10,2,1,10,1,3,10,1,FALSE,incongruent,1,Inference
95,9606,2351,survey-multi-choice,15,361765,Speaker Unaware,4a,"{""Q0"":""No""}",no_belief,7,No,0,7,0,group2,speaker_unaware,4,1,10,2,1,10,1,3,10,1,FALSE,incongruent,0,Inference
96,9606,4046,survey-multi-choice,17,397793,Speaker Unaware,4a,"{""Q0"":""Yes""}",no_belief,8,Yes,1,8,0,group2,speaker_unaware,4,1,10,2,1,10,1,3,10,1,TRUE,congruent,1,Inference
97,12238,10092,survey-multi-choice,3,201001,Speaker Aware,4a,"{""Q0"":""No""}",belief,3,No,0,1,0,group2,speaker_aware,3,0,8,3,1,7,0,3,7.5,0.5,TRUE,congruent,0,Inference
98,12238,3313,survey-multi-choice,5,222476,Speaker Aware,4a,"{""Q0"":""No""}",belief,6,No,0,2,0,group2,speaker_aware,3,0,8,3,1,7,0,3,7.5,0.5,TRUE,congruent,0,Inference
99,12238,3253,survey-multi-choice,7,256547,Speaker Unaware,4a,"{""Q0"":""Yes""}",no_belief,7,Yes,1,3,0,group2,speaker_unaware,3,0,8,3,1,7,0,3,7.5,0.5,TRUE,congruent,1,Inference
100,12238,3573,survey-multi-choice,9,514436,Speaker Aware,4a,"{""Q0"":""Yes""}",belief,1,Yes,1,4,0,group2,speaker_aware,3,0,8,3,1,7,0,3,7.5,0.5,FALSE,incongruent,1,Inference
101,12238,2846,survey-multi-choice,11,580412,Speaker Unaware,4a,"{""Q0"":""No""}",no_belief,2,No,0,5,0,group2,speaker_unaware,3,0,8,3,1,7,0,3,7.5,0.5,FALSE,incongruent,0,Inference
102,12238,2596,survey-multi-choice,13,635968,Speaker Aware,4a,"{""Q0"":""Yes""}",belief,4,Yes,1,6,0,group2,speaker_aware,3,0,8,3,1,7,0,3,7.5,0.5,FALSE,incongruent,1,Inference
103,12238,3095,survey-multi-choice,15,651127,Speaker Unaware,4a,"{""Q0"":""Yes""}",no_belief,8,Yes,1,7,0,group2,speaker_unaware,3,0,8,3,1,7,0,3,7.5,0.5,TRUE,congruent,1,Inference
104,12238,2029,survey-multi-choice,17,688581,Speaker Unaware,4a,"{""Q0"":""Yes""}",no_belief,5,Yes,1,8,0,group2,speaker_unaware,3,0,8,3,1,7,0,3,7.5,0.5,TRUE,congruent,1,Inference
105,13002,7608,survey-multi-choice,3,354337,Speaker Unaware,4b,"{""Q0"":""No""}",no_belief,2,No,0,1,0,group2,speaker_unaware,6,0,8,9,1,9,0,7.5,8.5,0.5,TRUE,congruent,1,Knowledge
106,13002,4981,survey-multi-choice,5,376428,Speaker Aware,4b,"{""Q0"":""Yes""}",belief,1,Yes,1,2,0,group2,speaker_aware,6,0,8,9,1,9,0,7.5,8.5,0.5,TRUE,congruent,0,Knowledge
107,13002,3883,survey-multi-choice,7,395372,Speaker Aware,4b,"{""Q0"":""No""}",belief,3,No,0,3,0,group2,speaker_aware,6,0,8,9,1,9,0,7.5,8.5,0.5,FALSE,incongruent,1,Knowledge
108,13002,4169,survey-multi-choice,9,406946,Speaker Unaware,4b,"{""Q0"":""No""}",no_belief,8,No,0,4,0,group2,speaker_unaware,6,0,8,9,1,9,0,7.5,8.5,0.5,TRUE,congruent,1,Knowledge
109,13002,4022,survey-multi-choice,11,419981,Speaker Aware,4b,"{""Q0"":""Yes""}",belief,6,Yes,1,5,0,group2,speaker_aware,6,0,8,9,1,9,0,7.5,8.5,0.5,TRUE,congruent,0,Knowledge
110,13002,4697,survey-multi-choice,13,470266,Speaker Unaware,4b,"{""Q0"":""Yes""}",no_belief,5,Yes,1,6,0,group2,speaker_unaware,6,0,8,9,1,9,0,7.5,8.5,0.5,FALSE,incongruent,0,Knowledge
111,13002,3292,survey-multi-choice,15,505451,Speaker Unaware,4b,"{""Q0"":""No""}",no_belief,7,No,0,7,0,group2,speaker_unaware,6,0,8,9,1,9,0,7.5,8.5,0.5,TRUE,congruent,1,Knowledge
112,13002,4808,survey-multi-choice,17,569401,Speaker Aware,4b,"{""Q0"":""No""}",belief,4,No,0,8,0,group2,speaker_aware,6,0,8,9,1,9,0,7.5,8.5,0.5,FALSE,incongruent,1,Knowledge
113,13480,6130,survey-multi-choice,3,161697,Speaker Aware,4a,"{""Q0"":""Yes""}",belief,4,Yes,1,1,0,group2,speaker_aware,8,0,10,7,1,8,0,7.5,9,0.5,FALSE,incongruent,1,Inference
114,13480,4052,survey-multi-choice,5,205487,Speaker Unaware,4a,"{""Q0"":""Yes""}",no_belief,8,Yes,1,2,0,group2,speaker_unaware,8,0,10,7,1,8,0,7.5,9,0.5,TRUE,congruent,1,Inference
115,13480,3331,survey-multi-choice,7,242839,Speaker Unaware,4a,"{""Q0"":""Yes""}",no_belief,2,Yes,1,3,0,group2,speaker_unaware,8,0,10,7,1,8,0,7.5,9,0.5,TRUE,congruent,1,Inference
116,13480,3080,survey-multi-choice,9,276150,Speaker Unaware,4a,"{""Q0"":""No""}",no_belief,7,No,0,4,0,group2,speaker_unaware,8,0,10,7,1,8,0,7.5,9,0.5,FALSE,incongruent,0,Inference
117,13480,4185,survey-multi-choice,11,306846,Speaker Aware,4a,"{""Q0"":""No""}",belief,1,No,0,5,0,group2,speaker_aware,8,0,10,7,1,8,0,7.5,9,0.5,TRUE,congruent,0,Inference
118,13480,2607,survey-multi-choice,13,361661,Speaker Unaware,4a,"{""Q0"":""Yes""}",no_belief,5,Yes,1,6,0,group2,speaker_unaware,8,0,10,7,1,8,0,7.5,9,0.5,TRUE,congruent,1,Inference
119,13480,4103,survey-multi-choice,15,379566,Speaker Aware,4a,"{""Q0"":""Yes""}",belief,6,Yes,1,7,0,group2,speaker_aware,8,0,10,7,1,8,0,7.5,9,0.5,FALSE,incongruent,1,Inference
120,13480,3747,survey-multi-choice,17,414253,Speaker Aware,4a,"{""Q0"":""No""}",belief,3,No,0,8,0,group2,speaker_aware,8,0,10,7,1,8,0,7.5,9,0.5,TRUE,congruent,0,Inference
121,13662,3355,survey-multi-choice,3,64616,Speaker Aware,4b,"{""Q0"":""Yes""}",belief,3,Yes,1,1,0,group2,speaker_aware,10,0,10,10,1,10,0,10,10,0.5,TRUE,congruent,0,Knowledge
122,13662,2500,survey-multi-choice,5,82022,Speaker Aware,4b,"{""Q0"":""Yes""}",belief,1,Yes,1,2,0,group2,speaker_aware,10,0,10,10,1,10,0,10,10,0.5,TRUE,congruent,0,Knowledge
123,13662,3509,survey-multi-choice,7,99241,Speaker Unaware,4b,"{""Q0"":""No""}",no_belief,7,No,0,3,0,group2,speaker_unaware,10,0,10,10,1,10,0,10,10,0.5,TRUE,congruent,1,Knowledge
124,13662,2777,survey-multi-choice,9,116581,Speaker Aware,4b,"{""Q0"":""Yes""}",belief,4,Yes,1,4,0,group2,speaker_aware,10,0,10,10,1,10,0,10,10,0.5,TRUE,congruent,0,Knowledge
125,13662,5392,survey-multi-choice,11,142389,Speaker Unaware,4b,"{""Q0"":""Yes""}",no_belief,5,Yes,1,5,0,group2,speaker_unaware,10,0,10,10,1,10,0,10,10,0.5,FALSE,incongruent,0,Knowledge
126,13662,2950,survey-multi-choice,13,170258,Speaker Unaware,4b,"{""Q0"":""Yes""}",no_belief,8,Yes,1,6,0,group2,speaker_unaware,10,0,10,10,1,10,0,10,10,0.5,FALSE,incongruent,0,Knowledge
127,13662,2630,survey-multi-choice,15,192107,Speaker Aware,4b,"{""Q0"":""Yes""}",belief,6,Yes,1,7,0,group2,speaker_aware,10,0,10,10,1,10,0,10,10,0.5,TRUE,congruent,0,Knowledge
128,13662,2613,survey-multi-choice,17,264431,Speaker Unaware,4b,"{""Q0"":""Yes""}",no_belief,2,Yes,1,8,0,group2,speaker_unaware,10,0,10,10,1,10,0,10,10,0.5,FALSE,incongruent,0,Knowledge
129,15206,5856,survey-multi-choice,3,129487,Speaker Unaware,4b,"{""Q0"":""No""}",no_belief,4,No,0,1,0,group1,speaker_unaware,10,0,10,10,1,10,0,10,10,0.5,TRUE,congruent,1,Knowledge
130,15206,5036,survey-multi-choice,5,158809,Speaker Aware,4b,"{""Q0"":""No""}",belief,7,No,0,2,0,group1,speaker_aware,10,0,10,10,1,10,0,10,10,0.5,FALSE,incongruent,1,Knowledge
131,15206,3860,survey-multi-choice,7,212278,Speaker Aware,4b,"{""Q0"":""Yes""}",belief,8,Yes,1,3,0,group1,speaker_aware,10,0,10,10,1,10,0,10,10,0.5,TRUE,congruent,0,Knowledge
132,15206,3594,survey-multi-choice,9,247200,Speaker Unaware,4b,"{""Q0"":""No""}",no_belief,1,No,0,4,0,group1,speaker_unaware,10,0,10,10,1,10,0,10,10,0.5,TRUE,congruent,1,Knowledge
133,15206,3226,survey-multi-choice,11,306509,Speaker Aware,4b,"{""Q0"":""No""}",belief,5,No,0,5,0,group1,speaker_aware,10,0,10,10,1,10,0,10,10,0.5,FALSE,incongruent,1,Knowledge
134,15206,3402,survey-multi-choice,13,339616,Speaker Unaware,4b,"{""Q0"":""No""}",no_belief,3,No,0,6,0,group1,speaker_unaware,10,0,10,10,1,10,0,10,10,0.5,TRUE,congruent,1,Knowledge
135,15206,3037,survey-multi-choice,15,352816,Speaker Unaware,4b,"{""Q0"":""No""}",no_belief,6,No,0,7,0,group1,speaker_unaware,10,0,10,10,1,10,0,10,10,0.5,TRUE,congruent,1,Knowledge
136,15206,3829,survey-multi-choice,17,386673,Speaker Aware,4b,"{""Q0"":""Yes""}",belief,2,Yes,1,8,0,group1,speaker_aware,10,0,10,10,1,10,0,10,10,0.5,TRUE,congruent,0,Knowledge
137,15321,41607,survey-multi-choice,3,127970,Speaker Unaware,4b,"{""Q0"":""No""}",no_belief,1,No,0,1,0,group1,speaker_unaware,8,0,10,8,0,8,0,8,9,0,TRUE,congruent,1,Knowledge
138,15321,3306,survey-multi-choice,5,184007,Speaker Aware,4b,"{""Q0"":""Yes""}",belief,8,Yes,1,2,0,group1,speaker_aware,8,0,10,8,0,8,0,8,9,0,TRUE,congruent,0,Knowledge
139,15321,3697,survey-multi-choice,7,231823,Speaker Unaware,4b,"{""Q0"":""No""}",no_belief,3,No,0,3,0,group1,speaker_unaware,8,0,10,8,0,8,0,8,9,0,TRUE,congruent,1,Knowledge
140,15321,3410,survey-multi-choice,9,312870,Speaker Aware,4b,"{""Q0"":""Yes""}",belief,5,Yes,1,4,0,group1,speaker_aware,8,0,10,8,0,8,0,8,9,0,TRUE,congruent,0,Knowledge
141,15321,4171,survey-multi-choice,11,349679,Speaker Unaware,4b,"{""Q0"":""No""}",no_belief,4,No,0,5,0,group1,speaker_unaware,8,0,10,8,0,8,0,8,9,0,TRUE,congruent,1,Knowledge
142,15321,4322,survey-multi-choice,13,401183,Speaker Aware,4b,"{""Q0"":""Yes""}",belief,2,Yes,1,6,0,group1,speaker_aware,8,0,10,8,0,8,0,8,9,0,TRUE,congruent,0,Knowledge
143,15321,3058,survey-multi-choice,15,426535,Speaker Unaware,4b,"{""Q0"":""No""}",no_belief,6,No,0,7,0,group1,speaker_unaware,8,0,10,8,0,8,0,8,9,0,TRUE,congruent,1,Knowledge
144,15321,20474,survey-multi-choice,17,472383,Speaker Aware,4b,"{""Q0"":""Yes""}",belief,7,Yes,1,8,0,group1,speaker_aware,8,0,10,8,0,8,0,8,9,0,TRUE,congruent,0,Knowledge
145,15817,4057,survey-multi-choice,3,64368,Speaker Aware,4a,"{""Q0"":""Yes""}",belief,2,Yes,1,1,0,group1,speaker_aware,13,1,10,14,1,10,1,13.5,10,1,FALSE,incongruent,1,Inference
146,15817,3101,survey-multi-choice,5,96874,Speaker Aware,4a,"{""Q0"":""Yes""}",belief,8,Yes,1,2,0,group1,speaker_aware,13,1,10,14,1,10,1,13.5,10,1,FALSE,incongruent,1,Inference
147,15817,3184,survey-multi-choice,7,174096,Speaker Aware,4a,"{""Q0"":""No""}",belief,5,No,0,3,0,group1,speaker_aware,13,1,10,14,1,10,1,13.5,10,1,TRUE,congruent,0,Inference
148,15817,5658,survey-multi-choice,9,200218,Speaker Unaware,4a,"{""Q0"":""No""}",no_belief,3,No,0,4,0,group1,speaker_unaware,13,1,10,14,1,10,1,13.5,10,1,FALSE,incongruent,0,Inference
149,15817,2247,survey-multi-choice,11,228204,Speaker Aware,4a,"{""Q0"":""Yes""}",belief,7,Yes,1,5,0,group1,speaker_aware,13,1,10,14,1,10,1,13.5,10,1,FALSE,incongruent,1,Inference
150,15817,2092,survey-multi-choice,13,248216,Speaker Unaware,4a,"{""Q0"":""No""}",no_belief,1,No,0,6,0,group1,speaker_unaware,13,1,10,14,1,10,1,13.5,10,1,FALSE,incongruent,0,Inference
151,15817,2819,survey-multi-choice,15,267182,Speaker Unaware,4a,"{""Q0"":""No""}",no_belief,6,No,0,7,0,group1,speaker_unaware,13,1,10,14,1,10,1,13.5,10,1,FALSE,incongruent,0,Inference
152,15817,3914,survey-multi-choice,17,295720,Speaker Unaware,4a,"{""Q0"":""Yes""}",no_belief,4,Yes,1,8,0,group1,speaker_unaware,13,1,10,14,1,10,1,13.5,10,1,TRUE,congruent,1,Inference
153,17243,4129,survey-multi-choice,3,24983,Speaker Aware,4a,"{""Q0"":""Yes""}",belief,2,Yes,1,1,0,group1,speaker_aware,3,1,8,3,1,7,1,3,7.5,1,FALSE,incongruent,1,Inference
154,17243,1961,survey-multi-choice,5,43150,Speaker Aware,4a,"{""Q0"":""Yes""}",belief,8,Yes,1,2,0,group1,speaker_aware,3,1,8,3,1,7,1,3,7.5,1,FALSE,incongruent,1,Inference
155,17243,1741,survey-multi-choice,7,108471,Speaker Unaware,4a,"{""Q0"":""No""}",no_belief,3,No,0,3,0,group1,speaker_unaware,3,1,8,3,1,7,1,3,7.5,1,FALSE,incongruent,0,Inference
156,17243,2003,survey-multi-choice,9,118476,Speaker Aware,4a,"{""Q0"":""No""}",belief,7,No,0,4,0,group1,speaker_aware,3,1,8,3,1,7,1,3,7.5,1,TRUE,congruent,0,Inference
157,17243,1562,survey-multi-choice,11,128372,Speaker Unaware,4a,"{""Q0"":""Yes""}",no_belief,6,Yes,1,5,0,group1,speaker_unaware,3,1,8,3,1,7,1,3,7.5,1,TRUE,congruent,1,Inference
158,17243,1608,survey-multi-choice,13,161489,Speaker Aware,4a,"{""Q0"":""No""}",belief,5,No,0,6,0,group1,speaker_aware,3,1,8,3,1,7,1,3,7.5,1,TRUE,congruent,0,Inference
159,17243,1246,survey-multi-choice,15,176329,Speaker Unaware,4a,"{""Q0"":""Yes""}",no_belief,4,Yes,1,7,0,group1,speaker_unaware,3,1,8,3,1,7,1,3,7.5,1,TRUE,congruent,1,Inference
160,17243,1312,survey-multi-choice,17,192363,Speaker Unaware,4a,"{""Q0"":""No""}",no_belief,1,No,0,8,0,group1,speaker_unaware,3,1,8,3,1,7,1,3,7.5,1,FALSE,incongruent,0,Inference
161,18404,3565,survey-multi-choice,3,303444,Speaker Unaware,4b,"{""Q0"":""Yes""}",no_belief,4,Yes,1,1,0,group1,speaker_unaware,15,0,10,16,0,10,0,15.5,10,0,FALSE,incongruent,0,Knowledge
162,18404,3790,survey-multi-choice,5,328491,Speaker Unaware,4b,"{""Q0"":""No""}",no_belief,1,No,0,2,0,group1,speaker_unaware,15,0,10,16,0,10,0,15.5,10,0,TRUE,congruent,1,Knowledge
163,18404,4206,survey-multi-choice,7,367539,Speaker Aware,4b,"{""Q0"":""Yes""}",belief,5,Yes,1,3,0,group1,speaker_aware,15,0,10,16,0,10,0,15.5,10,0,TRUE,congruent,0,Knowledge
164,18404,3150,survey-multi-choice,9,404051,Speaker Unaware,4b,"{""Q0"":""No""}",no_belief,3,No,0,4,0,group1,speaker_unaware,15,0,10,16,0,10,0,15.5,10,0,TRUE,congruent,1,Knowledge
165,18404,2500,survey-multi-choice,11,436843,Speaker Aware,4b,"{""Q0"":""No""}",belief,8,No,0,5,0,group1,speaker_aware,15,0,10,16,0,10,0,15.5,10,0,FALSE,incongruent,1,Knowledge
166,18404,3054,survey-multi-choice,13,449843,Speaker Unaware,4b,"{""Q0"":""No""}",no_belief,6,No,0,6,0,group1,speaker_unaware,15,0,10,16,0,10,0,15.5,10,0,TRUE,congruent,1,Knowledge
167,18404,2854,survey-multi-choice,15,476803,Speaker Aware,4b,"{""Q0"":""Yes""}",belief,7,Yes,1,7,0,group1,speaker_aware,15,0,10,16,0,10,0,15.5,10,0,TRUE,congruent,0,Knowledge
168,18404,2125,survey-multi-choice,17,490619,Speaker Aware,4b,"{""Q0"":""Yes""}",belief,2,Yes,1,8,0,group1,speaker_aware,15,0,10,16,0,10,0,15.5,10,0,TRUE,congruent,0,Knowledge
169,18984,2797,survey-multi-choice,3,69038,Speaker Aware,4a,"{""Q0"":""No""}",belief,3,No,0,1,0,group2,speaker_aware,10,0,10,12,1,9,0,11,9.5,0.5,TRUE,congruent,0,Inference
170,18984,1509,survey-multi-choice,5,86533,Speaker Aware,4a,"{""Q0"":""No""}",belief,1,No,0,2,0,group2,speaker_aware,10,0,10,12,1,9,0,11,9.5,0.5,TRUE,congruent,0,Inference
171,18984,1900,survey-multi-choice,7,108421,Speaker Unaware,4a,"{""Q0"":""Yes""}",no_belief,7,Yes,1,3,0,group2,speaker_unaware,10,0,10,12,1,9,0,11,9.5,0.5,TRUE,congruent,1,Inference
172,18984,1471,survey-multi-choice,9,134086,Speaker Aware,4a,"{""Q0"":""Yes""}",belief,4,Yes,1,4,0,group2,speaker_aware,10,0,10,12,1,9,0,11,9.5,0.5,FALSE,incongruent,1,Inference
173,18984,3294,survey-multi-choice,11,167741,Speaker Unaware,4a,"{""Q0"":""No""}",no_belief,5,No,0,5,0,group2,speaker_unaware,10,0,10,12,1,9,0,11,9.5,0.5,FALSE,incongruent,0,Inference
174,18984,1445,survey-multi-choice,13,188445,Speaker Unaware,4a,"{""Q0"":""Yes""}",no_belief,2,Yes,1,6,0,group2,speaker_unaware,10,0,10,12,1,9,0,11,9.5,0.5,TRUE,congruent,1,Inference
175,18984,1726,survey-multi-choice,15,215574,Speaker Unaware,4a,"{""Q0"":""Yes""}",no_belief,8,Yes,1,7,0,group2,speaker_unaware,10,0,10,12,1,9,0,11,9.5,0.5,TRUE,congruent,1,Inference
176,18984,1700,survey-multi-choice,17,227933,Speaker Aware,4a,"{""Q0"":""No""}",belief,6,No,0,8,0,group2,speaker_aware,10,0,10,12,1,9,0,11,9.5,0.5,TRUE,congruent,0,Inference
177,19677,5127,survey-multi-choice,3,41050,Speaker Unaware,4b,"{""Q0"":""No""}",no_belief,7,No,0,1,0,group2,speaker_unaware,5,0,8,5,1,9,0,5,8.5,0.5,TRUE,congruent,1,Knowledge
178,19677,4514,survey-multi-choice,5,73874,Speaker Aware,4b,"{""Q0"":""Yes""}",belief,4,Yes,1,2,0,group2,speaker_aware,5,0,8,5,1,9,0,5,8.5,0.5,TRUE,congruent,0,Knowledge
179,19677,4782,survey-multi-choice,7,97772,Speaker Unaware,4b,"{""Q0"":""No""}",no_belief,2,No,0,3,0,group2,speaker_unaware,5,0,8,5,1,9,0,5,8.5,0.5,TRUE,congruent,1,Knowledge
180,19677,3417,survey-multi-choice,9,136684,Speaker Unaware,4b,"{""Q0"":""Yes""}",no_belief,8,Yes,1,4,0,group2,speaker_unaware,5,0,8,5,1,9,0,5,8.5,0.5,FALSE,incongruent,0,Knowledge
181,19677,2804,survey-multi-choice,11,161920,Speaker Aware,4b,"{""Q0"":""Yes""}",belief,1,Yes,1,5,0,group2,speaker_aware,5,0,8,5,1,9,0,5,8.5,0.5,TRUE,congruent,0,Knowledge
182,19677,3920,survey-multi-choice,13,201143,Speaker Unaware,4b,"{""Q0"":""No""}",no_belief,5,No,0,6,0,group2,speaker_unaware,5,0,8,5,1,9,0,5,8.5,0.5,TRUE,congruent,1,Knowledge
183,19677,5018,survey-multi-choice,15,224244,Speaker Aware,4b,"{""Q0"":""Yes""}",belief,3,Yes,1,7,0,group2,speaker_aware,5,0,8,5,1,9,0,5,8.5,0.5,TRUE,congruent,0,Knowledge
184,19677,2184,survey-multi-choice,17,238438,Speaker Aware,4b,"{""Q0"":""No""}",belief,6,No,0,8,0,group2,speaker_aware,5,0,8,5,1,9,0,5,8.5,0.5,FALSE,incongruent,1,Knowledge
185,19699,4740,survey-multi-choice,3,34650,Speaker Aware,4a,"{""Q0"":""No""}",belief,4,No,0,1,0,group2,speaker_aware,6,0,10,7,1,8,0,6.5,9,0.5,TRUE,congruent,0,Inference
186,19699,3534,survey-multi-choice,5,53875,Speaker Unaware,4a,"{""Q0"":""No""}",no_belief,7,No,0,2,0,group2,speaker_unaware,6,0,10,7,1,8,0,6.5,9,0.5,FALSE,incongruent,0,Inference
187,19699,3474,survey-multi-choice,7,77508,Speaker Unaware,4a,"{""Q0"":""No""}",no_belief,2,No,0,3,0,group2,speaker_unaware,6,0,10,7,1,8,0,6.5,9,0.5,FALSE,incongruent,0,Inference
188,19699,2091,survey-multi-choice,9,93318,Speaker Unaware,4a,"{""Q0"":""Yes""}",no_belief,5,Yes,1,4,0,group2,speaker_unaware,6,0,10,7,1,8,0,6.5,9,0.5,TRUE,congruent,1,Inference
189,19699,1505,survey-multi-choice,11,104921,Speaker Aware,4a,"{""Q0"":""Yes""}",belief,6,Yes,1,5,0,group2,speaker_aware,6,0,10,7,1,8,0,6.5,9,0.5,FALSE,incongruent,1,Inference
190,19699,1455,survey-multi-choice,13,121928,Speaker Unaware,4a,"{""Q0"":""No""}",no_belief,8,No,0,6,0,group2,speaker_unaware,6,0,10,7,1,8,0,6.5,9,0.5,FALSE,incongruent,0,Inference
191,19699,1467,survey-multi-choice,15,196785,Speaker Aware,4a,"{""Q0"":""Yes""}",belief,3,Yes,1,7,0,group2,speaker_aware,6,0,10,7,1,8,0,6.5,9,0.5,FALSE,incongruent,1,Inference
192,19699,1610,survey-multi-choice,17,205408,Speaker Aware,4a,"{""Q0"":""No""}",belief,1,No,0,8,0,group2,speaker_aware,6,0,10,7,1,8,0,6.5,9,0.5,TRUE,congruent,0,Inference
193,20764,19412,survey-multi-choice,3,276534,Speaker Unaware,4b,"{""Q0"":""No""}",no_belief,4,No,0,1,0,group1,speaker_unaware,6,0,10,5,1,9,1,5.5,9.5,0.5,TRUE,congruent,1,Knowledge
194,20764,27763,survey-multi-choice,5,329042,Speaker Aware,4b,"{""Q0"":""No""}",belief,7,No,0,2,0,group1,speaker_aware,6,0,10,5,1,9,1,5.5,9.5,0.5,FALSE,incongruent,1,Knowledge
195,20764,34654,survey-multi-choice,7,384748,Speaker Unaware,4b,"{""Q0"":""No""}",no_belief,1,No,0,3,0,group1,speaker_unaware,6,0,10,5,1,9,1,5.5,9.5,0.5,TRUE,congruent,1,Knowledge
196,20764,4189,survey-multi-choice,9,442478,Speaker Aware,4b,"{""Q0"":""No""}",belief,5,No,0,4,0,group1,speaker_aware,6,0,10,5,1,9,1,5.5,9.5,0.5,FALSE,incongruent,1,Knowledge
197,20764,31770,survey-multi-choice,11,497905,Speaker Aware,4b,"{""Q0"":""Yes""}",belief,2,Yes,1,5,0,group1,speaker_aware,6,0,10,5,1,9,1,5.5,9.5,0.5,TRUE,congruent,0,Knowledge
198,20764,14697,survey-multi-choice,13,541582,Speaker Aware,4b,"{""Q0"":""Yes""}",belief,8,Yes,1,6,0,group1,speaker_aware,6,0,10,5,1,9,1,5.5,9.5,0.5,TRUE,congruent,0,Knowledge
199,20764,1870,survey-multi-choice,15,565303,Speaker Unaware,4b,"{""Q0"":""No""}",no_belief,6,No,0,7,0,group1,speaker_unaware,6,0,10,5,1,9,1,5.5,9.5,0.5,TRUE,congruent,1,Knowledge
200,20764,1956,survey-multi-choice,17,597692,Speaker Unaware,4b,"{""Q0"":""No""}",no_belief,3,No,0,8,0,group1,speaker_unaware,6,0,10,5,1,9,1,5.5,9.5,0.5,TRUE,congruent,1,Knowledge
201,21276,7910,survey-multi-choice,3,107452,Speaker Unaware,4b,"{""Q0"":""No""}",no_belief,4,No,0,1,0,group1,speaker_unaware,11,0,10,11,1,9,0,11,9.5,0.5,TRUE,congruent,1,Knowledge
202,21276,3382,survey-multi-choice,5,130739,Speaker Unaware,4b,"{""Q0"":""No""}",no_belief,6,No,0,2,0,group1,speaker_unaware,11,0,10,11,1,9,0,11,9.5,0.5,TRUE,congruent,1,Knowledge
203,21276,4269,survey-multi-choice,7,180337,Speaker Aware,4b,"{""Q0"":""Yes""}",belief,5,Yes,1,3,0,group1,speaker_aware,11,0,10,11,1,9,0,11,9.5,0.5,TRUE,congruent,0,Knowledge
204,21276,2490,survey-multi-choice,9,238631,Speaker Unaware,4b,"{""Q0"":""No""}",no_belief,3,No,0,4,0,group1,speaker_unaware,11,0,10,11,1,9,0,11,9.5,0.5,TRUE,congruent,1,Knowledge
205,21276,3153,survey-multi-choice,11,280204,Speaker Aware,4b,"{""Q0"":""Yes""}",belief,8,Yes,1,5,0,group1,speaker_aware,11,0,10,11,1,9,0,11,9.5,0.5,TRUE,congruent,0,Knowledge
206,21276,2548,survey-multi-choice,13,318067,Speaker Aware,4b,"{""Q0"":""Yes""}",belief,7,Yes,1,6,0,group1,speaker_aware,11,0,10,11,1,9,0,11,9.5,0.5,TRUE,congruent,0,Knowledge
207,21276,2229,survey-multi-choice,15,370819,Speaker Unaware,4b,"{""Q0"":""No""}",no_belief,1,No,0,7,0,group1,speaker_unaware,11,0,10,11,1,9,0,11,9.5,0.5,TRUE,congruent,1,Knowledge
208,21276,2644,survey-multi-choice,17,431660,Speaker Aware,4b,"{""Q0"":""Yes""}",belief,2,Yes,1,8,0,group1,speaker_aware,11,0,10,11,1,9,0,11,9.5,0.5,TRUE,congruent,0,Knowledge
209,21285,4392,survey-multi-choice,3,62479,Speaker Aware,4b,"{""Q0"":""Yes""}",belief,1,Yes,1,1,0,group2,speaker_aware,7,0,8,9,1,10,1,8,9,0.5,TRUE,congruent,0,Knowledge
210,21285,4902,survey-multi-choice,5,114645,Speaker Unaware,4b,"{""Q0"":""No""}",no_belief,8,No,0,2,0,group2,speaker_unaware,7,0,8,9,1,10,1,8,9,0.5,TRUE,congruent,1,Knowledge
211,21285,3955,survey-multi-choice,7,145745,Speaker Aware,4b,"{""Q0"":""No""}",belief,4,No,0,3,0,group2,speaker_aware,7,0,8,9,1,10,1,8,9,0.5,FALSE,incongruent,1,Knowledge
212,21285,6236,survey-multi-choice,9,181072,Speaker Aware,4b,"{""Q0"":""Yes""}",belief,3,Yes,1,4,0,group2,speaker_aware,7,0,8,9,1,10,1,8,9,0.5,TRUE,congruent,0,Knowledge
213,21285,3531,survey-multi-choice,11,220375,Speaker Unaware,4b,"{""Q0"":""No""}",no_belief,2,No,0,5,0,group2,speaker_unaware,7,0,8,9,1,10,1,8,9,0.5,TRUE,congruent,1,Knowledge
214,21285,6701,survey-multi-choice,13,236785,Speaker Aware,4b,"{""Q0"":""Yes""}",belief,6,Yes,1,6,0,group2,speaker_aware,7,0,8,9,1,10,1,8,9,0.5,TRUE,congruent,0,Knowledge
215,21285,2789,survey-multi-choice,15,277949,Speaker Unaware,4b,"{""Q0"":""No""}",no_belief,5,No,0,7,0,group2,speaker_unaware,7,0,8,9,1,10,1,8,9,0.5,TRUE,congruent,1,Knowledge
216,21285,37700,survey-multi-choice,17,368230,Speaker Unaware,4b,"{""Q0"":""No""}",no_belief,7,No,0,8,0,group2,speaker_unaware,7,0,8,9,1,10,1,8,9,0.5,TRUE,congruent,1,Knowledge
217,21475,27552,survey-multi-choice,3,134501,Speaker Unaware,4a,"{""Q0"":""Yes""}",no_belief,8,Yes,1,1,0,group2,speaker_unaware,7,1,9,9,1,10,1,8,9.5,1,TRUE,congruent,1,Inference
218,21475,4816,survey-multi-choice,5,163532,Speaker Aware,4a,"{""Q0"":""No""}",belief,3,No,0,2,0,group2,speaker_aware,7,1,9,9,1,10,1,8,9.5,1,TRUE,congruent,0,Inference
219,21475,10546,survey-multi-choice,7,199620,Speaker Unaware,4a,"{""Q0"":""No""}",no_belief,7,No,0,3,0,group2,speaker_unaware,7,1,9,9,1,10,1,8,9.5,1,FALSE,incongruent,0,Inference
220,21475,8648,survey-multi-choice,9,236427,Speaker Unaware,4a,"{""Q0"":""Yes""}",no_belief,2,Yes,1,4,0,group2,speaker_unaware,7,1,9,9,1,10,1,8,9.5,1,TRUE,congruent,1,Inference
221,21475,2389,survey-multi-choice,11,256391,Speaker Aware,4a,"{""Q0"":""No""}",belief,4,No,0,5,0,group2,speaker_aware,7,1,9,9,1,10,1,8,9.5,1,TRUE,congruent,0,Inference
222,21475,2415,survey-multi-choice,13,291095,Speaker Aware,4a,"{""Q0"":""Yes""}",belief,6,Yes,1,6,0,group2,speaker_aware,7,1,9,9,1,10,1,8,9.5,1,FALSE,incongruent,1,Inference
223,21475,2603,survey-multi-choice,15,311289,Speaker Aware,4a,"{""Q0"":""No""}",belief,1,No,0,7,0,group2,speaker_aware,7,1,9,9,1,10,1,8,9.5,1,TRUE,congruent,0,Inference
224,21475,2954,survey-multi-choice,17,348939,Speaker Unaware,4a,"{""Q0"":""Yes""}",no_belief,5,Yes,1,8,0,group2,speaker_unaware,7,1,9,9,1,10,1,8,9.5,1,TRUE,congruent,1,Inference
225,21566,6041,survey-multi-choice,3,201548,Speaker Aware,4b,"{""Q0"":""Yes""}",belief,8,Yes,1,1,0,group1,speaker_aware,9,1,10,9,1,9,1,9,9.5,1,TRUE,congruent,0,Knowledge
226,21566,3020,survey-multi-choice,5,249652,Speaker Aware,4b,"{""Q0"":""Yes""}",belief,5,Yes,1,2,0,group1,speaker_aware,9,1,10,9,1,9,1,9,9.5,1,TRUE,congruent,0,Knowledge
227,21566,4304,survey-multi-choice,7,329166,Speaker Unaware,4b,"{""Q0"":""Yes""}",no_belief,4,Yes,1,3,0,group1,speaker_unaware,9,1,10,9,1,9,1,9,9.5,1,FALSE,incongruent,0,Knowledge
228,21566,2565,survey-multi-choice,9,344932,Speaker Unaware,4b,"{""Q0"":""No""}",no_belief,3,No,0,4,0,group1,speaker_unaware,9,1,10,9,1,9,1,9,9.5,1,TRUE,congruent,1,Knowledge
229,21566,3600,survey-multi-choice,11,358785,Speaker Aware,4b,"{""Q0"":""Yes""}",belief,7,Yes,1,5,0,group1,speaker_aware,9,1,10,9,1,9,1,9,9.5,1,TRUE,congruent,0,Knowledge
230,21566,3631,survey-multi-choice,13,383364,Speaker Unaware,4b,"{""Q0"":""No""}",no_belief,6,No,0,6,0,group1,speaker_unaware,9,1,10,9,1,9,1,9,9.5,1,TRUE,congruent,1,Knowledge
231,21566,4575,survey-multi-choice,15,444167,Speaker Aware,4b,"{""Q0"":""No""}",belief,2,No,0,7,0,group1,speaker_aware,9,1,10,9,1,9,1,9,9.5,1,FALSE,incongruent,1,Knowledge
232,21566,981,survey-multi-choice,17,452348,Speaker Unaware,4b,"{""Q0"":""Yes""}",no_belief,1,Yes,1,8,0,group1,speaker_unaware,9,1,10,9,1,9,1,9,9.5,1,FALSE,incongruent,0,Knowledge
233,22568,13842,survey-multi-choice,3,83765,Speaker Unaware,4a,"{""Q0"":""No""}",no_belief,2,No,0,1,0,group2,speaker_unaware,8,0,10,10,1,10,0,9,10,0.5,FALSE,incongruent,0,Inference
234,22568,7152,survey-multi-choice,5,95142,Speaker Aware,4a,"{""Q0"":""Yes""}",belief,1,Yes,1,2,0,group2,speaker_aware,8,0,10,10,1,10,0,9,10,0.5,FALSE,incongruent,1,Inference
235,22568,4090,survey-multi-choice,7,114962,Speaker Aware,4a,"{""Q0"":""Yes""}",belief,6,Yes,1,3,0,group2,speaker_aware,8,0,10,10,1,10,0,9,10,0.5,FALSE,incongruent,1,Inference
236,22568,2531,survey-multi-choice,9,148034,Speaker Unaware,4a,"{""Q0"":""No""}",no_belief,8,No,0,4,0,group2,speaker_unaware,8,0,10,10,1,10,0,9,10,0.5,FALSE,incongruent,0,Inference
237,22568,2387,survey-multi-choice,11,164555,Speaker Unaware,4a,"{""Q0"":""No""}",no_belief,7,No,0,5,0,group2,speaker_unaware,8,0,10,10,1,10,0,9,10,0.5,FALSE,incongruent,0,Inference
238,22568,2707,survey-multi-choice,13,171530,Speaker Aware,4a,"{""Q0"":""Yes""}",belief,3,Yes,1,6,0,group2,speaker_aware,8,0,10,10,1,10,0,9,10,0.5,FALSE,incongruent,1,Inference
239,22568,1822,survey-multi-choice,15,183638,Speaker Unaware,4a,"{""Q0"":""Yes""}",no_belief,5,Yes,1,7,0,group2,speaker_unaware,8,0,10,10,1,10,0,9,10,0.5,TRUE,congruent,1,Inference
240,22568,3802,survey-multi-choice,17,197946,Speaker Aware,4a,"{""Q0"":""No""}",belief,4,No,0,8,0,group2,speaker_aware,8,0,10,10,1,10,0,9,10,0.5,TRUE,congruent,0,Inference
241,23235,4049,survey-multi-choice,3,39724,Speaker Aware,4a,"{""Q0"":""No""}",belief,6,No,0,1,0,group2,speaker_aware,10,0,10,8,1,10,0,9,10,0.5,TRUE,congruent,0,Inference
242,23235,2599,survey-multi-choice,5,112436,Speaker Aware,4a,"{""Q0"":""No""}",belief,1,No,0,2,0,group2,speaker_aware,10,0,10,8,1,10,0,9,10,0.5,TRUE,congruent,0,Inference
243,23235,1788,survey-multi-choice,7,255891,Speaker Unaware,4a,"{""Q0"":""Yes""}",no_belief,8,Yes,1,3,0,group2,speaker_unaware,10,0,10,8,1,10,0,9,10,0.5,TRUE,congruent,1,Inference
244,23235,1417,survey-multi-choice,9,279292,Speaker Aware,4a,"{""Q0"":""Yes""}",belief,3,Yes,1,4,0,group2,speaker_aware,10,0,10,8,1,10,0,9,10,0.5,FALSE,incongruent,1,Inference
245,23235,5110,survey-multi-choice,11,315035,Speaker Unaware,4a,"{""Q0"":""No""}",no_belief,7,No,0,5,0,group2,speaker_unaware,10,0,10,8,1,10,0,9,10,0.5,FALSE,incongruent,0,Inference
246,23235,1608,survey-multi-choice,13,359373,Speaker Unaware,4a,"{""Q0"":""Yes""}",no_belief,2,Yes,1,6,0,group2,speaker_unaware,10,0,10,8,1,10,0,9,10,0.5,TRUE,congruent,1,Inference
247,23235,1439,survey-multi-choice,15,377239,Speaker Aware,4a,"{""Q0"":""No""}",belief,4,No,0,7,0,group2,speaker_aware,10,0,10,8,1,10,0,9,10,0.5,TRUE,congruent,0,Inference
248,23235,1812,survey-multi-choice,17,400122,Speaker Unaware,4a,"{""Q0"":""No""}",no_belief,5,No,0,8,0,group2,speaker_unaware,10,0,10,8,1,10,0,9,10,0.5,FALSE,incongruent,0,Inference
249,24796,4288,survey-multi-choice,3,70296,Speaker Aware,4a,"{""Q0"":""Yes""}",belief,2,Yes,1,1,0,group1,speaker_aware,7,0,10,10,1,8,1,8.5,9,0.5,FALSE,incongruent,1,Inference
250,24796,3211,survey-multi-choice,5,95092,Speaker Aware,4a,"{""Q0"":""No""}",belief,7,No,0,2,0,group1,speaker_aware,7,0,10,10,1,8,1,8.5,9,0.5,TRUE,congruent,0,Inference
251,24796,1871,survey-multi-choice,7,123440,Speaker Unaware,4a,"{""Q0"":""Yes""}",no_belief,4,Yes,1,3,0,group1,speaker_unaware,7,0,10,10,1,8,1,8.5,9,0.5,TRUE,congruent,1,Inference
252,24796,1907,survey-multi-choice,9,172530,Speaker Aware,4a,"{""Q0"":""Yes""}",belief,5,Yes,1,4,0,group1,speaker_aware,7,0,10,10,1,8,1,8.5,9,0.5,FALSE,incongruent,1,Inference
253,24796,1694,survey-multi-choice,11,191557,Speaker Unaware,4a,"{""Q0"":""Yes""}",no_belief,6,Yes,1,5,0,group1,speaker_unaware,7,0,10,10,1,8,1,8.5,9,0.5,TRUE,congruent,1,Inference
254,24796,1456,survey-multi-choice,13,233183,Speaker Aware,4a,"{""Q0"":""Yes""}",belief,8,Yes,1,6,0,group1,speaker_aware,7,0,10,10,1,8,1,8.5,9,0.5,FALSE,incongruent,1,Inference
255,24796,1642,survey-multi-choice,15,255611,Speaker Unaware,4a,"{""Q0"":""Yes""}",no_belief,3,Yes,1,7,0,group1,speaker_unaware,7,0,10,10,1,8,1,8.5,9,0.5,TRUE,congruent,1,Inference
256,24796,2113,survey-multi-choice,17,283251,Speaker Unaware,4a,"{""Q0"":""No""}",no_belief,1,No,0,8,0,group1,speaker_unaware,7,0,10,10,1,8,1,8.5,9,0.5,FALSE,incongruent,0,Inference
257,26891,3156,survey-multi-choice,3,33278,Speaker Aware,4b,"{""Q0"":""No""}",belief,7,No,0,1,0,group1,speaker_aware,4,0,4,3,0,3,0,3.5,3.5,0,FALSE,incongruent,1,Knowledge
258,26891,1835,survey-multi-choice,5,40246,Speaker Unaware,4b,"{""Q0"":""Yes""}",no_belief,6,Yes,1,2,0,group1,speaker_unaware,4,0,4,3,0,3,0,3.5,3.5,0,FALSE,incongruent,0,Knowledge
259,26891,2059,survey-multi-choice,7,52834,Speaker Aware,4b,"{""Q0"":""Yes""}",belief,2,Yes,1,3,0,group1,speaker_aware,4,0,4,3,0,3,0,3.5,3.5,0,TRUE,congruent,0,Knowledge
260,26891,2203,survey-multi-choice,9,71659,Speaker Unaware,4b,"{""Q0"":""No""}",no_belief,3,No,0,4,0,group1,speaker_unaware,4,0,4,3,0,3,0,3.5,3.5,0,TRUE,congruent,1,Knowledge
261,26891,2056,survey-multi-choice,11,87912,Speaker Aware,4b,"{""Q0"":""Yes""}",belief,5,Yes,1,5,0,group1,speaker_aware,4,0,4,3,0,3,0,3.5,3.5,0,TRUE,congruent,0,Knowledge
262,26891,2371,survey-multi-choice,13,102767,Speaker Unaware,4b,"{""Q0"":""No""}",no_belief,1,No,0,6,0,group1,speaker_unaware,4,0,4,3,0,3,0,3.5,3.5,0,TRUE,congruent,1,Knowledge
263,26891,1668,survey-multi-choice,15,130423,Speaker Aware,4b,"{""Q0"":""No""}",belief,8,No,0,7,0,group1,speaker_aware,4,0,4,3,0,3,0,3.5,3.5,0,FALSE,incongruent,1,Knowledge
264,26891,2486,survey-multi-choice,17,144685,Speaker Unaware,4b,"{""Q0"":""Yes""}",no_belief,4,Yes,1,8,0,group1,speaker_unaware,4,0,4,3,0,3,0,3.5,3.5,0,FALSE,incongruent,0,Knowledge
265,27062,4467,survey-multi-choice,3,85076,Speaker Unaware,4b,"{""Q0"":""No""}",no_belief,2,No,0,1,0,group2,speaker_unaware,8,0,10,8,1,9,0,8,9.5,0.5,TRUE,congruent,1,Knowledge
266,27062,5554,survey-multi-choice,5,117700,Speaker Aware,4b,"{""Q0"":""Yes""}",belief,4,Yes,1,2,0,group2,speaker_aware,8,0,10,8,1,9,0,8,9.5,0.5,TRUE,congruent,0,Knowledge
267,27062,4047,survey-multi-choice,7,144709,Speaker Unaware,4b,"{""Q0"":""No""}",no_belief,7,No,0,3,0,group2,speaker_unaware,8,0,10,8,1,9,0,8,9.5,0.5,TRUE,congruent,1,Knowledge
268,27062,5033,survey-multi-choice,9,161100,Speaker Aware,4b,"{""Q0"":""Yes""}",belief,6,Yes,1,4,0,group2,speaker_aware,8,0,10,8,1,9,0,8,9.5,0.5,TRUE,congruent,0,Knowledge
269,27062,3607,survey-multi-choice,11,189676,Speaker Aware,4b,"{""Q0"":""Yes""}",belief,1,Yes,1,5,0,group2,speaker_aware,8,0,10,8,1,9,0,8,9.5,0.5,TRUE,congruent,0,Knowledge
270,27062,4628,survey-multi-choice,13,234020,Speaker Aware,4b,"{""Q0"":""Yes""}",belief,3,Yes,1,6,0,group2,speaker_aware,8,0,10,8,1,9,0,8,9.5,0.5,TRUE,congruent,0,Knowledge
271,27062,6508,survey-multi-choice,15,272715,Speaker Unaware,4b,"{""Q0"":""No""}",no_belief,5,No,0,7,0,group2,speaker_unaware,8,0,10,8,1,9,0,8,9.5,0.5,TRUE,congruent,1,Knowledge
272,27062,2501,survey-multi-choice,17,305965,Speaker Unaware,4b,"{""Q0"":""No""}",no_belief,8,No,0,8,0,group2,speaker_unaware,8,0,10,8,1,9,0,8,9.5,0.5,TRUE,congruent,1,Knowledge
273,27164,2047,survey-multi-choice,3,1206896,Speaker Unaware,4b,"{""Q0"":""No""}",no_belief,4,No,0,1,0,group1,speaker_unaware,5,0,6,3,1,7,0,4,6.5,0.5,TRUE,congruent,1,Knowledge
274,27164,1639,survey-multi-choice,5,1212910,Speaker Aware,4b,"{""Q0"":""Yes""}",belief,5,Yes,1,2,0,group1,speaker_aware,5,0,6,3,1,7,0,4,6.5,0.5,TRUE,congruent,0,Knowledge
275,27164,2853,survey-multi-choice,7,1218157,Speaker Aware,4b,"{""Q0"":""No""}",belief,2,No,0,3,0,group1,speaker_aware,5,0,6,3,1,7,0,4,6.5,0.5,FALSE,incongruent,1,Knowledge
276,27164,1645,survey-multi-choice,9,1232163,Speaker Aware,4b,"{""Q0"":""No""}",belief,8,No,0,4,0,group1,speaker_aware,5,0,6,3,1,7,0,4,6.5,0.5,FALSE,incongruent,1,Knowledge
277,27164,1951,survey-multi-choice,11,1237172,Speaker Unaware,4b,"{""Q0"":""No""}",no_belief,6,No,0,5,0,group1,speaker_unaware,5,0,6,3,1,7,0,4,6.5,0.5,TRUE,congruent,1,Knowledge
278,27164,1370,survey-multi-choice,13,1248715,Speaker Unaware,4b,"{""Q0"":""No""}",no_belief,3,No,0,6,0,group1,speaker_unaware,5,0,6,3,1,7,0,4,6.5,0.5,TRUE,congruent,1,Knowledge
279,27164,1406,survey-multi-choice,15,1255624,Speaker Unaware,4b,"{""Q0"":""No""}",no_belief,1,No,0,7,0,group1,speaker_unaware,5,0,6,3,1,7,0,4,6.5,0.5,TRUE,congruent,1,Knowledge
280,27164,3475,survey-multi-choice,17,1261494,Speaker Aware,4b,"{""Q0"":""Yes""}",belief,7,Yes,1,8,0,group1,speaker_aware,5,0,6,3,1,7,0,4,6.5,0.5,TRUE,congruent,0,Knowledge
281,27241,3282,survey-multi-choice,3,56811,Speaker Unaware,4b,"{""Q0"":""No""}",no_belief,5,No,0,1,0,group2,speaker_unaware,4,0,9,5,1,8,1,4.5,8.5,0.5,TRUE,congruent,1,Knowledge
282,27241,4133,survey-multi-choice,5,80360,Speaker Aware,4b,"{""Q0"":""No""}",belief,3,No,0,2,0,group2,speaker_aware,4,0,9,5,1,8,1,4.5,8.5,0.5,FALSE,incongruent,1,Knowledge
283,27241,3940,survey-multi-choice,7,98649,Speaker Aware,4b,"{""Q0"":""Yes""}",belief,1,Yes,1,3,0,group2,speaker_aware,4,0,9,5,1,8,1,4.5,8.5,0.5,TRUE,congruent,0,Knowledge
284,27241,2708,survey-multi-choice,9,108916,Speaker Aware,4b,"{""Q0"":""Yes""}",belief,6,Yes,1,4,0,group2,speaker_aware,4,0,9,5,1,8,1,4.5,8.5,0.5,TRUE,congruent,0,Knowledge
285,27241,3455,survey-multi-choice,11,126964,Speaker Aware,4b,"{""Q0"":""Yes""}",belief,4,Yes,1,5,0,group2,speaker_aware,4,0,9,5,1,8,1,4.5,8.5,0.5,TRUE,congruent,0,Knowledge
286,27241,3024,survey-multi-choice,13,148215,Speaker Unaware,4b,"{""Q0"":""No""}",no_belief,7,No,0,6,0,group2,speaker_unaware,4,0,9,5,1,8,1,4.5,8.5,0.5,TRUE,congruent,1,Knowledge
287,27241,2949,survey-multi-choice,15,169294,Speaker Unaware,4b,"{""Q0"":""No""}",no_belief,8,No,0,7,0,group2,speaker_unaware,4,0,9,5,1,8,1,4.5,8.5,0.5,TRUE,congruent,1,Knowledge
288,27241,2863,survey-multi-choice,17,188563,Speaker Unaware,4b,"{""Q0"":""No""}",no_belief,2,No,0,8,0,group2,speaker_unaware,4,0,9,5,1,8,1,4.5,8.5,0.5,TRUE,congruent,1,Knowledge
289,27717,3643,survey-multi-choice,3,103109,Speaker Unaware,4b,"{""Q0"":""No""}",no_belief,1,No,0,1,0,group1,speaker_unaware,10,0,10,10,1,10,1,10,10,0.5,TRUE,congruent,1,Knowledge
290,27717,2629,survey-multi-choice,5,128330,Speaker Unaware,4b,"{""Q0"":""No""}",no_belief,4,No,0,2,0,group1,speaker_unaware,10,0,10,10,1,10,1,10,10,0.5,TRUE,congruent,1,Knowledge
291,27717,3619,survey-multi-choice,7,166185,Speaker Aware,4b,"{""Q0"":""Yes""}",belief,2,Yes,1,3,0,group1,speaker_aware,10,0,10,10,1,10,1,10,10,0.5,TRUE,congruent,0,Knowledge
292,27717,2950,survey-multi-choice,9,205066,Speaker Aware,4b,"{""Q0"":""No""}",belief,5,No,0,4,0,group1,speaker_aware,10,0,10,10,1,10,1,10,10,0.5,FALSE,incongruent,1,Knowledge
293,27717,2123,survey-multi-choice,11,231282,Speaker Aware,4b,"{""Q0"":""Yes""}",belief,8,Yes,1,5,0,group1,speaker_aware,10,0,10,10,1,10,1,10,10,0.5,TRUE,congruent,0,Knowledge
294,27717,1846,survey-multi-choice,13,250265,Speaker Aware,4b,"{""Q0"":""Yes""}",belief,7,Yes,1,6,0,group1,speaker_aware,10,0,10,10,1,10,1,10,10,0.5,TRUE,congruent,0,Knowledge
295,27717,2523,survey-multi-choice,15,292385,Speaker Unaware,4b,"{""Q0"":""No""}",no_belief,3,No,0,7,0,group1,speaker_unaware,10,0,10,10,1,10,1,10,10,0.5,TRUE,congruent,1,Knowledge
296,27717,2123,survey-multi-choice,17,313842,Speaker Unaware,4b,"{""Q0"":""No""}",no_belief,6,No,0,8,0,group1,speaker_unaware,10,0,10,10,1,10,1,10,10,0.5,TRUE,congruent,1,Knowledge
297,28056,6065,survey-multi-choice,3,23138,Speaker Unaware,4a,"{""Q0"":""No""}",no_belief,1,No,0,1,0,group1,speaker_unaware,10,0,10,12,1,9,1,11,9.5,0.5,FALSE,incongruent,0,Inference
298,28056,4886,survey-multi-choice,5,84412,Speaker Aware,4a,"{""Q0"":""Yes""}",belief,8,Yes,1,2,0,group1,speaker_aware,10,0,10,12,1,9,1,11,9.5,0.5,FALSE,incongruent,1,Inference
299,28056,2615,survey-multi-choice,7,106250,Speaker Unaware,4a,"{""Q0"":""Yes""}",no_belief,6,Yes,1,3,0,group1,speaker_unaware,10,0,10,12,1,9,1,11,9.5,0.5,TRUE,congruent,1,Inference
300,28056,5797,survey-multi-choice,9,114370,Speaker Unaware,4a,"{""Q0"":""Yes""}",no_belief,3,Yes,1,4,0,group1,speaker_unaware,10,0,10,12,1,9,1,11,9.5,0.5,TRUE,congruent,1,Inference
301,28056,4598,survey-multi-choice,11,147306,Speaker Aware,4a,"{""Q0"":""Yes""}",belief,7,Yes,1,5,0,group1,speaker_aware,10,0,10,12,1,9,1,11,9.5,0.5,FALSE,incongruent,1,Inference
302,28056,2767,survey-multi-choice,13,188461,Speaker Aware,4a,"{""Q0"":""Yes""}",belief,5,Yes,1,6,0,group1,speaker_aware,10,0,10,12,1,9,1,11,9.5,0.5,FALSE,incongruent,1,Inference
303,28056,3341,survey-multi-choice,15,233633,Speaker Aware,4a,"{""Q0"":""Yes""}",belief,2,Yes,1,7,0,group1,speaker_aware,10,0,10,12,1,9,1,11,9.5,0.5,FALSE,incongruent,1,Inference
304,28056,3302,survey-multi-choice,17,264891,Speaker Unaware,4a,"{""Q0"":""Yes""}",no_belief,4,Yes,1,8,0,group1,speaker_unaware,10,0,10,12,1,9,1,11,9.5,0.5,TRUE,congruent,1,Inference
305,29390,2294,survey-multi-choice,3,22585,Speaker Unaware,4b,"{""Q0"":""No""}",no_belief,2,No,0,1,0,group2,speaker_unaware,5,0,10,8,1,8,0,6.5,9,0.5,TRUE,congruent,1,Knowledge
306,29390,10790,survey-multi-choice,5,58234,Speaker Unaware,4b,"{""Q0"":""No""}",no_belief,5,No,0,2,0,group2,speaker_unaware,5,0,10,8,1,8,0,6.5,9,0.5,TRUE,congruent,1,Knowledge
307,29390,4980,survey-multi-choice,7,79337,Speaker Aware,4b,"{""Q0"":""Yes""}",belief,1,Yes,1,3,0,group2,speaker_aware,5,0,10,8,1,8,0,6.5,9,0.5,TRUE,congruent,0,Knowledge
308,29390,24838,survey-multi-choice,9,126766,Speaker Aware,4b,"{""Q0"":""Yes""}",belief,3,Yes,1,4,0,group2,speaker_aware,5,0,10,8,1,8,0,6.5,9,0.5,TRUE,congruent,0,Knowledge
309,29390,6397,survey-multi-choice,11,155287,Speaker Unaware,4b,"{""Q0"":""No""}",no_belief,7,No,0,5,0,group2,speaker_unaware,5,0,10,8,1,8,0,6.5,9,0.5,TRUE,congruent,1,Knowledge
310,29390,7726,survey-multi-choice,13,189259,Speaker Unaware,4b,"{""Q0"":""No""}",no_belief,8,No,0,6,0,group2,speaker_unaware,5,0,10,8,1,8,0,6.5,9,0.5,TRUE,congruent,1,Knowledge
311,29390,9731,survey-multi-choice,15,219657,Speaker Aware,4b,"{""Q0"":""No""}",belief,4,No,0,7,0,group2,speaker_aware,5,0,10,8,1,8,0,6.5,9,0.5,FALSE,incongruent,1,Knowledge
312,29390,4255,survey-multi-choice,17,239487,Speaker Aware,4b,"{""Q0"":""Yes""}",belief,6,Yes,1,8,0,group2,speaker_aware,5,0,10,8,1,8,0,6.5,9,0.5,TRUE,congruent,0,Knowledge
313,29781,12463,survey-multi-choice,3,105241,Speaker Aware,4a,"{""Q0"":""Yes""}",belief,2,Yes,1,1,0,group1,speaker_aware,9,0,10,9,1,9,0,9,9.5,0.5,FALSE,incongruent,1,Inference
314,29781,5763,survey-multi-choice,5,152358,Speaker Aware,4a,"{""Q0"":""No""}",belief,7,No,0,2,0,group1,speaker_aware,9,0,10,9,1,9,0,9,9.5,0.5,TRUE,congruent,0,Inference
315,29781,7053,survey-multi-choice,7,199712,Speaker Unaware,4a,"{""Q0"":""Yes""}",no_belief,3,Yes,1,3,0,group1,speaker_unaware,9,0,10,9,1,9,0,9,9.5,0.5,TRUE,congruent,1,Inference
316,29781,2675,survey-multi-choice,9,296786,Speaker Aware,4a,"{""Q0"":""Yes""}",belief,8,Yes,1,4,0,group1,speaker_aware,9,0,10,9,1,9,0,9,9.5,0.5,FALSE,incongruent,1,Inference
317,29781,2080,survey-multi-choice,11,341376,Speaker Unaware,4a,"{""Q0"":""Yes""}",no_belief,1,Yes,1,5,0,group1,speaker_unaware,9,0,10,9,1,9,0,9,9.5,0.5,TRUE,congruent,1,Inference
318,29781,4492,survey-multi-choice,13,380161,Speaker Unaware,4a,"{""Q0"":""No""}",no_belief,4,No,0,6,0,group1,speaker_unaware,9,0,10,9,1,9,0,9,9.5,0.5,FALSE,incongruent,0,Inference
319,29781,2867,survey-multi-choice,15,405299,Speaker Unaware,4a,"{""Q0"":""Yes""}",no_belief,6,Yes,1,7,0,group1,speaker_unaware,9,0,10,9,1,9,0,9,9.5,0.5,TRUE,congruent,1,Inference
320,29781,8023,survey-multi-choice,17,443643,Speaker Aware,4a,"{""Q0"":""Yes""}",belief,5,Yes,1,8,0,group1,speaker_aware,9,0,10,9,1,9,0,9,9.5,0.5,FALSE,incongruent,1,Inference
321,30473,3893,survey-multi-choice,3,42873,Speaker Aware,4b,"{""Q0"":""Yes""}",belief,6,Yes,1,1,0,group2,speaker_aware,8,0,8,9,1,10,0,8.5,9,0.5,TRUE,congruent,0,Knowledge
322,30473,4886,survey-multi-choice,5,100852,Speaker Unaware,4b,"{""Q0"":""No""}",no_belief,5,No,0,2,0,group2,speaker_unaware,8,0,8,9,1,10,0,8.5,9,0.5,TRUE,congruent,1,Knowledge
323,30473,2666,survey-multi-choice,7,155275,Speaker Unaware,4b,"{""Q0"":""Yes""}",no_belief,2,Yes,1,3,0,group2,speaker_unaware,8,0,8,9,1,10,0,8.5,9,0.5,FALSE,incongruent,0,Knowledge
324,30473,2562,survey-multi-choice,9,178288,Speaker Aware,4b,"{""Q0"":""No""}",belief,4,No,0,4,0,group2,speaker_aware,8,0,8,9,1,10,0,8.5,9,0.5,FALSE,incongruent,1,Knowledge
325,30473,2524,survey-multi-choice,11,204476,Speaker Aware,4b,"{""Q0"":""Yes""}",belief,1,Yes,1,5,0,group2,speaker_aware,8,0,8,9,1,10,0,8.5,9,0.5,TRUE,congruent,0,Knowledge
326,30473,4387,survey-multi-choice,13,236005,Speaker Aware,4b,"{""Q0"":""Yes""}",belief,3,Yes,1,6,0,group2,speaker_aware,8,0,8,9,1,10,0,8.5,9,0.5,TRUE,congruent,0,Knowledge
327,30473,2238,survey-multi-choice,15,263134,Speaker Unaware,4b,"{""Q0"":""No""}",no_belief,8,No,0,7,0,group2,speaker_unaware,8,0,8,9,1,10,0,8.5,9,0.5,TRUE,congruent,1,Knowledge
328,30473,2134,survey-multi-choice,17,291284,Speaker Unaware,4b,"{""Q0"":""No""}",no_belief,7,No,0,8,0,group2,speaker_unaware,8,0,8,9,1,10,0,8.5,9,0.5,TRUE,congruent,1,Knowledge
329,33472,2714,survey-multi-choice,3,21090,Speaker Unaware,4b,"{""Q0"":""No""}",no_belief,6,No,0,1,0,group1,speaker_unaware,6,0,4,4,0,2,0,5,3,0,TRUE,congruent,1,Knowledge
330,33472,5496,survey-multi-choice,5,73437,Speaker Unaware,4b,"{""Q0"":""No""}",no_belief,4,No,0,2,0,group1,speaker_unaware,6,0,4,4,0,2,0,5,3,0,TRUE,congruent,1,Knowledge
331,33472,18249,survey-multi-choice,7,122988,Speaker Aware,4b,"{""Q0"":""Yes""}",belief,2,Yes,1,3,0,group1,speaker_aware,6,0,4,4,0,2,0,5,3,0,TRUE,congruent,0,Knowledge
332,33472,3401,survey-multi-choice,9,147535,Speaker Unaware,4b,"{""Q0"":""No""}",no_belief,1,No,0,4,0,group1,speaker_unaware,6,0,4,4,0,2,0,5,3,0,TRUE,congruent,1,Knowledge
333,33472,13117,survey-multi-choice,11,187171,Speaker Aware,4b,"{""Q0"":""Yes""}",belief,7,Yes,1,5,0,group1,speaker_aware,6,0,4,4,0,2,0,5,3,0,TRUE,congruent,0,Knowledge
334,33472,20447,survey-multi-choice,13,233372,Speaker Aware,4b,"{""Q0"":""Yes""}",belief,5,Yes,1,6,0,group1,speaker_aware,6,0,4,4,0,2,0,5,3,0,TRUE,congruent,0,Knowledge
335,33472,2428,survey-multi-choice,15,265312,Speaker Aware,4b,"{""Q0"":""Yes""}",belief,8,Yes,1,7,0,group1,speaker_aware,6,0,4,4,0,2,0,5,3,0,TRUE,congruent,0,Knowledge
336,33472,5643,survey-multi-choice,17,403146,Speaker Unaware,4b,"{""Q0"":""No""}",no_belief,3,No,0,8,0,group1,speaker_unaware,6,0,4,4,0,2,0,5,3,0,TRUE,congruent,1,Knowledge
337,34186,7039,survey-multi-choice,3,51765,Speaker Aware,4a,"{""Q0"":""Yes""}",belief,3,Yes,1,1,0,group2,speaker_aware,8,0,9,9,1,8,0,8.5,8.5,0.5,FALSE,incongruent,1,Inference
338,34186,3796,survey-multi-choice,5,61600,Speaker Unaware,4a,"{""Q0"":""No""}",no_belief,7,No,0,2,0,group2,speaker_unaware,8,0,9,9,1,8,0,8.5,8.5,0.5,FALSE,incongruent,0,Inference
339,34186,1723,survey-multi-choice,7,82592,Speaker Aware,4a,"{""Q0"":""No""}",belief,1,No,0,3,0,group2,speaker_aware,8,0,9,9,1,8,0,8.5,8.5,0.5,TRUE,congruent,0,Inference
340,34186,1382,survey-multi-choice,9,108009,Speaker Aware,4a,"{""Q0"":""No""}",belief,4,No,0,4,0,group2,speaker_aware,8,0,9,9,1,8,0,8.5,8.5,0.5,TRUE,congruent,0,Inference
341,34186,3658,survey-multi-choice,11,199856,Speaker Unaware,4a,"{""Q0"":""Yes""}",no_belief,8,Yes,1,5,0,group2,speaker_unaware,8,0,9,9,1,8,0,8.5,8.5,0.5,TRUE,congruent,1,Inference
342,34186,19811,survey-multi-choice,13,233746,Speaker Aware,4a,"{""Q0"":""Yes""}",belief,6,Yes,1,6,0,group2,speaker_aware,8,0,9,9,1,8,0,8.5,8.5,0.5,FALSE,incongruent,1,Inference
343,34186,25265,survey-multi-choice,15,282512,Speaker Unaware,4a,"{""Q0"":""Yes""}",no_belief,5,Yes,1,7,0,group2,speaker_unaware,8,0,9,9,1,8,0,8.5,8.5,0.5,TRUE,congruent,1,Inference
344,34186,1513,survey-multi-choice,17,360350,Speaker Unaware,4a,"{""Q0"":""Yes""}",no_belief,2,Yes,1,8,0,group2,speaker_unaware,8,0,9,9,1,8,0,8.5,8.5,0.5,TRUE,congruent,1,Inference
345,34325,3523,survey-multi-choice,3,69450,Speaker Aware,4b,"{""Q0"":""Yes""}",belief,7,Yes,1,1,0,group1,speaker_aware,4,0,10,3,1,9,0,3.5,9.5,0.5,TRUE,congruent,0,Knowledge
346,34325,3336,survey-multi-choice,5,165564,Speaker Aware,4b,"{""Q0"":""Yes""}",belief,2,Yes,1,2,0,group1,speaker_aware,4,0,10,3,1,9,0,3.5,9.5,0.5,TRUE,congruent,0,Knowledge
347,34325,3588,survey-multi-choice,7,281458,Speaker Aware,4b,"{""Q0"":""Yes""}",belief,8,Yes,1,3,0,group1,speaker_aware,4,0,10,3,1,9,0,3.5,9.5,0.5,TRUE,congruent,0,Knowledge
348,34325,8123,survey-multi-choice,9,363607,Speaker Unaware,4b,"{""Q0"":""Yes""}",no_belief,3,Yes,1,4,0,group1,speaker_unaware,4,0,10,3,1,9,0,3.5,9.5,0.5,FALSE,incongruent,0,Knowledge
349,34325,2744,survey-multi-choice,11,406531,Speaker Aware,4b,"{""Q0"":""Yes""}",belief,5,Yes,1,5,0,group1,speaker_aware,4,0,10,3,1,9,0,3.5,9.5,0.5,TRUE,congruent,0,Knowledge
350,34325,3867,survey-multi-choice,13,440831,Speaker Unaware,4b,"{""Q0"":""No""}",no_belief,1,No,0,6,0,group1,speaker_unaware,4,0,10,3,1,9,0,3.5,9.5,0.5,TRUE,congruent,1,Knowledge
351,34325,3601,survey-multi-choice,15,614041,Speaker Unaware,4b,"{""Q0"":""No""}",no_belief,4,No,0,7,0,group1,speaker_unaware,4,0,10,3,1,9,0,3.5,9.5,0.5,TRUE,congruent,1,Knowledge
352,34325,2561,survey-multi-choice,17,673479,Speaker Unaware,4b,"{""Q0"":""No""}",no_belief,6,No,0,8,0,group1,speaker_unaware,4,0,10,3,1,9,0,3.5,9.5,0.5,TRUE,congruent,1,Knowledge
353,34615,6654,survey-multi-choice,3,96072,Speaker Unaware,4b,"{""Q0"":""No""}",no_belief,4,No,0,1,0,group1,speaker_unaware,6,0,10,5,1,9,1,5.5,9.5,0.5,TRUE,congruent,1,Knowledge
354,34615,3735,survey-multi-choice,5,116376,Speaker Unaware,4b,"{""Q0"":""No""}",no_belief,6,No,0,2,0,group1,speaker_unaware,6,0,10,5,1,9,1,5.5,9.5,0.5,TRUE,congruent,1,Knowledge
355,34615,4294,survey-multi-choice,7,156940,Speaker Aware,4b,"{""Q0"":""Yes""}",belief,8,Yes,1,3,0,group1,speaker_aware,6,0,10,5,1,9,1,5.5,9.5,0.5,TRUE,congruent,0,Knowledge
356,34615,3272,survey-multi-choice,9,187657,Speaker Aware,4b,"{""Q0"":""Yes""}",belief,7,Yes,1,4,0,group1,speaker_aware,6,0,10,5,1,9,1,5.5,9.5,0.5,TRUE,congruent,0,Knowledge
357,34615,4784,survey-multi-choice,11,233389,Speaker Aware,4b,"{""Q0"":""Yes""}",belief,5,Yes,1,5,0,group1,speaker_aware,6,0,10,5,1,9,1,5.5,9.5,0.5,TRUE,congruent,0,Knowledge
358,34615,2950,survey-multi-choice,13,267052,Speaker Unaware,4b,"{""Q0"":""No""}",no_belief,1,No,0,6,0,group1,speaker_unaware,6,0,10,5,1,9,1,5.5,9.5,0.5,TRUE,congruent,1,Knowledge
359,34615,3945,survey-multi-choice,15,302533,Speaker Unaware,4b,"{""Q0"":""No""}",no_belief,3,No,0,7,0,group1,speaker_unaware,6,0,10,5,1,9,1,5.5,9.5,0.5,TRUE,congruent,1,Knowledge
360,34615,4721,survey-multi-choice,17,347662,Speaker Aware,4b,"{""Q0"":""Yes""}",belief,2,Yes,1,8,0,group1,speaker_aware,6,0,10,5,1,9,1,5.5,9.5,0.5,TRUE,congruent,0,Knowledge
361,34745,4402,survey-multi-choice,3,125771,Speaker Aware,4a,"{""Q0"":""No""}",belief,4,No,0,1,0,group2,speaker_aware,11,0,10,11,0,6,0,11,8,0,TRUE,congruent,0,Inference
362,34745,3073,survey-multi-choice,5,145759,Speaker Unaware,4a,"{""Q0"":""No""}",no_belief,7,No,0,2,0,group2,speaker_unaware,11,0,10,11,0,6,0,11,8,0,FALSE,incongruent,0,Inference
363,34745,2369,survey-multi-choice,7,159183,Speaker Aware,4a,"{""Q0"":""No""}",belief,6,No,0,3,0,group2,speaker_aware,11,0,10,11,0,6,0,11,8,0,TRUE,congruent,0,Inference
364,34745,1935,survey-multi-choice,9,194928,Speaker Unaware,4a,"{""Q0"":""No""}",no_belief,2,No,0,4,0,group2,speaker_unaware,11,0,10,11,0,6,0,11,8,0,FALSE,incongruent,0,Inference
365,34745,2024,survey-multi-choice,11,218217,Speaker Unaware,4a,"{""Q0"":""Yes""}",no_belief,5,Yes,1,5,0,group2,speaker_unaware,11,0,10,11,0,6,0,11,8,0,TRUE,congruent,1,Inference
366,34745,2890,survey-multi-choice,13,245833,Speaker Aware,4a,"{""Q0"":""No""}",belief,1,No,0,6,0,group2,speaker_aware,11,0,10,11,0,6,0,11,8,0,TRUE,congruent,0,Inference
367,34745,2912,survey-multi-choice,15,273027,Speaker Unaware,4a,"{""Q0"":""Yes""}",no_belief,8,Yes,1,7,0,group2,speaker_unaware,11,0,10,11,0,6,0,11,8,0,TRUE,congruent,1,Inference
368,34745,1696,survey-multi-choice,17,306402,Speaker Aware,4a,"{""Q0"":""No""}",belief,3,No,0,8,0,group2,speaker_aware,11,0,10,11,0,6,0,11,8,0,TRUE,congruent,0,Inference
369,34791,2353,survey-multi-choice,3,191624,Speaker Aware,4b,"{""Q0"":""No""}",belief,6,No,0,1,0,group2,speaker_aware,4,0,7,6,1,7,1,5,7,0.5,FALSE,incongruent,1,Knowledge
370,34791,3096,survey-multi-choice,5,208309,Speaker Aware,4b,"{""Q0"":""No""}",belief,3,No,0,2,0,group2,speaker_aware,4,0,7,6,1,7,1,5,7,0.5,FALSE,incongruent,1,Knowledge
371,34791,3385,survey-multi-choice,7,216781,Speaker Aware,4b,"{""Q0"":""No""}",belief,4,No,0,3,0,group2,speaker_aware,4,0,7,6,1,7,1,5,7,0.5,FALSE,incongruent,1,Knowledge
372,34791,1906,survey-multi-choice,9,229093,Speaker Aware,4b,"{""Q0"":""Yes""}",belief,1,Yes,1,4,0,group2,speaker_aware,4,0,7,6,1,7,1,5,7,0.5,TRUE,congruent,0,Knowledge
373,34791,2119,survey-multi-choice,11,321290,Speaker Unaware,4b,"{""Q0"":""Yes""}",no_belief,5,Yes,1,5,0,group2,speaker_unaware,4,0,7,6,1,7,1,5,7,0.5,FALSE,incongruent,0,Knowledge
374,34791,1562,survey-multi-choice,13,369633,Speaker Unaware,4b,"{""Q0"":""No""}",no_belief,8,No,0,6,0,group2,speaker_unaware,4,0,7,6,1,7,1,5,7,0.5,TRUE,congruent,1,Knowledge
375,34791,1819,survey-multi-choice,15,374873,Speaker Unaware,4b,"{""Q0"":""Yes""}",no_belief,2,Yes,1,7,0,group2,speaker_unaware,4,0,7,6,1,7,1,5,7,0.5,FALSE,incongruent,0,Knowledge
376,34791,1236,survey-multi-choice,17,379817,Speaker Unaware,4b,"{""Q0"":""Yes""}",no_belief,7,Yes,1,8,0,group2,speaker_unaware,4,0,7,6,1,7,1,5,7,0.5,FALSE,incongruent,0,Knowledge
377,35116,5775,survey-multi-choice,3,131292,Speaker Aware,4a,"{""Q0"":""Yes""}",belief,5,Yes,1,1,0,group1,speaker_aware,8,0,10,9,1,10,0,8.5,10,0.5,FALSE,incongruent,1,Inference
378,35116,2666,survey-multi-choice,5,163429,Speaker Unaware,4a,"{""Q0"":""No""}",no_belief,1,No,0,2,0,group1,speaker_unaware,8,0,10,9,1,10,0,8.5,10,0.5,FALSE,incongruent,0,Inference
379,35116,3475,survey-multi-choice,7,190356,Speaker Aware,4a,"{""Q0"":""Yes""}",belief,8,Yes,1,3,0,group1,speaker_aware,8,0,10,9,1,10,0,8.5,10,0.5,FALSE,incongruent,1,Inference
380,35116,2968,survey-multi-choice,9,218200,Speaker Unaware,4a,"{""Q0"":""Yes""}",no_belief,4,Yes,1,4,0,group1,speaker_unaware,8,0,10,9,1,10,0,8.5,10,0.5,TRUE,congruent,1,Inference
381,35116,2269,survey-multi-choice,11,241167,Speaker Aware,4a,"{""Q0"":""Yes""}",belief,7,Yes,1,5,0,group1,speaker_aware,8,0,10,9,1,10,0,8.5,10,0.5,FALSE,incongruent,1,Inference
382,35116,1581,survey-multi-choice,13,258473,Speaker Unaware,4a,"{""Q0"":""Yes""}",no_belief,6,Yes,1,6,0,group1,speaker_unaware,8,0,10,9,1,10,0,8.5,10,0.5,TRUE,congruent,1,Inference
383,35116,1319,survey-multi-choice,15,276122,Speaker Unaware,4a,"{""Q0"":""Yes""}",no_belief,3,Yes,1,7,0,group1,speaker_unaware,8,0,10,9,1,10,0,8.5,10,0.5,TRUE,congruent,1,Inference
384,35116,1757,survey-multi-choice,17,306845,Speaker Aware,4a,"{""Q0"":""No""}",belief,2,No,0,8,0,group1,speaker_aware,8,0,10,9,1,10,0,8.5,10,0.5,TRUE,congruent,0,Inference
385,35154,4049,survey-multi-choice,3,40409,Speaker Aware,4a,"{""Q0"":""Yes""}",belief,8,Yes,1,1,0,group1,speaker_aware,8,0,10,5,1,9,0,6.5,9.5,0.5,FALSE,incongruent,1,Inference
386,35154,4239,survey-multi-choice,5,51181,Speaker Unaware,4a,"{""Q0"":""Yes""}",no_belief,4,Yes,1,2,0,group1,speaker_unaware,8,0,10,5,1,9,0,6.5,9.5,0.5,TRUE,congruent,1,Inference
387,35154,3498,survey-multi-choice,7,59428,Speaker Unaware,4a,"{""Q0"":""No""}",no_belief,1,No,0,3,0,group1,speaker_unaware,8,0,10,5,1,9,0,6.5,9.5,0.5,FALSE,incongruent,0,Inference
388,35154,3082,survey-multi-choice,9,68266,Speaker Aware,4a,"{""Q0"":""No""}",belief,5,No,0,4,0,group1,speaker_aware,8,0,10,5,1,9,0,6.5,9.5,0.5,TRUE,congruent,0,Inference
389,35154,6566,survey-multi-choice,11,80797,Speaker Aware,4a,"{""Q0"":""No""}",belief,2,No,0,5,0,group1,speaker_aware,8,0,10,5,1,9,0,6.5,9.5,0.5,TRUE,congruent,0,Inference
390,35154,2703,survey-multi-choice,13,89045,Speaker Unaware,4a,"{""Q0"":""No""}",no_belief,6,No,0,6,0,group1,speaker_unaware,8,0,10,5,1,9,0,6.5,9.5,0.5,FALSE,incongruent,0,Inference
391,35154,3318,survey-multi-choice,15,96974,Speaker Unaware,4a,"{""Q0"":""No""}",no_belief,3,No,0,7,0,group1,speaker_unaware,8,0,10,5,1,9,0,6.5,9.5,0.5,FALSE,incongruent,0,Inference
392,35154,3341,survey-multi-choice,17,107638,Speaker Aware,4a,"{""Q0"":""No""}",belief,7,No,0,8,0,group1,speaker_aware,8,0,10,5,1,9,0,6.5,9.5,0.5,TRUE,congruent,0,Inference
393,35429,2976,survey-multi-choice,3,256026,Speaker Unaware,4a,"{""Q0"":""No""}",no_belief,4,No,0,1,0,group1,speaker_unaware,7,0,8,6,0,9,0,6.5,8.5,0,FALSE,incongruent,0,Inference
394,35429,1722,survey-multi-choice,5,269593,Speaker Aware,4a,"{""Q0"":""No""}",belief,7,No,0,2,0,group1,speaker_aware,7,0,8,6,0,9,0,6.5,8.5,0,TRUE,congruent,0,Inference
395,35429,1266,survey-multi-choice,7,281121,Speaker Aware,4a,"{""Q0"":""Yes""}",belief,8,Yes,1,3,0,group1,speaker_aware,7,0,8,6,0,9,0,6.5,8.5,0,FALSE,incongruent,1,Inference
396,35429,1826,survey-multi-choice,9,297145,Speaker Aware,4a,"{""Q0"":""No""}",belief,2,No,0,4,0,group1,speaker_aware,7,0,8,6,0,9,0,6.5,8.5,0,TRUE,congruent,0,Inference
397,35429,1723,survey-multi-choice,11,312704,Speaker Unaware,4a,"{""Q0"":""Yes""}",no_belief,6,Yes,1,5,0,group1,speaker_unaware,7,0,8,6,0,9,0,6.5,8.5,0,TRUE,congruent,1,Inference
398,35429,1234,survey-multi-choice,13,328648,Speaker Unaware,4a,"{""Q0"":""Yes""}",no_belief,3,Yes,1,6,0,group1,speaker_unaware,7,0,8,6,0,9,0,6.5,8.5,0,TRUE,congruent,1,Inference
399,35429,1362,survey-multi-choice,15,344841,Speaker Unaware,4a,"{""Q0"":""Yes""}",no_belief,1,Yes,1,7,0,group1,speaker_unaware,7,0,8,6,0,9,0,6.5,8.5,0,TRUE,congruent,1,Inference
400,35429,1290,survey-multi-choice,17,364584,Speaker Aware,4a,"{""Q0"":""Yes""}",belief,5,Yes,1,8,0,group1,speaker_aware,7,0,8,6,0,9,0,6.5,8.5,0,FALSE,incongruent,1,Inference
401,35476,15883,survey-multi-choice,3,98559,Speaker Unaware,4b,"{""Q0"":""No""}",no_belief,8,No,0,1,0,group2,speaker_unaware,12,1,10,10,1,10,1,11,10,1,TRUE,congruent,1,Knowledge
402,35476,3462,survey-multi-choice,5,167078,Speaker Unaware,4b,"{""Q0"":""No""}",no_belief,7,No,0,2,0,group2,speaker_unaware,12,1,10,10,1,10,1,11,10,1,TRUE,congruent,1,Knowledge
403,35476,4071,survey-multi-choice,7,188590,Speaker Aware,4b,"{""Q0"":""Yes""}",belief,6,Yes,1,3,0,group2,speaker_aware,12,1,10,10,1,10,1,11,10,1,TRUE,congruent,0,Knowledge
404,35476,6013,survey-multi-choice,9,238931,Speaker Unaware,4b,"{""Q0"":""No""}",no_belief,2,No,0,4,0,group2,speaker_unaware,12,1,10,10,1,10,1,11,10,1,TRUE,congruent,1,Knowledge
405,35476,12129,survey-multi-choice,11,306740,Speaker Unaware,4b,"{""Q0"":""No""}",no_belief,5,No,0,5,0,group2,speaker_unaware,12,1,10,10,1,10,1,11,10,1,TRUE,congruent,1,Knowledge
406,35476,2834,survey-multi-choice,13,339901,Speaker Aware,4b,"{""Q0"":""Yes""}",belief,1,Yes,1,6,0,group2,speaker_aware,12,1,10,10,1,10,1,11,10,1,TRUE,congruent,0,Knowledge
407,35476,4882,survey-multi-choice,15,387598,Speaker Aware,4b,"{""Q0"":""No""}",belief,4,No,0,7,0,group2,speaker_aware,12,1,10,10,1,10,1,11,10,1,FALSE,incongruent,1,Knowledge
408,35476,4629,survey-multi-choice,17,425097,Speaker Aware,4b,"{""Q0"":""Yes""}",belief,3,Yes,1,8,0,group2,speaker_aware,12,1,10,10,1,10,1,11,10,1,TRUE,congruent,0,Knowledge
409,36144,8568,survey-multi-choice,3,96455,Speaker Unaware,4b,"{""Q0"":""No""}",no_belief,4,No,0,1,0,group1,speaker_unaware,8,0,10,13,1,10,1,10.5,10,0.5,TRUE,congruent,1,Knowledge
410,36144,5205,survey-multi-choice,5,135829,Speaker Aware,4b,"{""Q0"":""Yes""}",belief,2,Yes,1,2,0,group1,speaker_aware,8,0,10,13,1,10,1,10.5,10,0.5,TRUE,congruent,0,Knowledge
411,36144,3235,survey-multi-choice,7,164661,Speaker Unaware,4b,"{""Q0"":""No""}",no_belief,1,No,0,3,0,group1,speaker_unaware,8,0,10,13,1,10,1,10.5,10,0.5,TRUE,congruent,1,Knowledge
412,36144,6236,survey-multi-choice,9,192574,Speaker Aware,4b,"{""Q0"":""Yes""}",belief,7,Yes,1,4,0,group1,speaker_aware,8,0,10,13,1,10,1,10.5,10,0.5,TRUE,congruent,0,Knowledge
413,36144,3002,survey-multi-choice,11,236052,Speaker Aware,4b,"{""Q0"":""Yes""}",belief,8,Yes,1,5,0,group1,speaker_aware,8,0,10,13,1,10,1,10.5,10,0.5,TRUE,congruent,0,Knowledge
414,36144,6438,survey-multi-choice,13,268572,Speaker Unaware,4b,"{""Q0"":""No""}",no_belief,3,No,0,6,0,group1,speaker_unaware,8,0,10,13,1,10,1,10.5,10,0.5,TRUE,congruent,1,Knowledge
415,36144,7523,survey-multi-choice,15,316824,Speaker Aware,4b,"{""Q0"":""No""}",belief,5,No,0,7,0,group1,speaker_aware,8,0,10,13,1,10,1,10.5,10,0.5,FALSE,incongruent,1,Knowledge
416,36144,3427,survey-multi-choice,17,339099,Speaker Unaware,4b,"{""Q0"":""No""}",no_belief,6,No,0,8,0,group1,speaker_unaware,8,0,10,13,1,10,1,10.5,10,0.5,TRUE,congruent,1,Knowledge
417,37180,4262,survey-multi-choice,3,228643,Speaker Unaware,4a,"{""Q0"":""Yes""}",no_belief,4,Yes,1,1,0,group1,speaker_unaware,5,0,8,6,1,7,0,5.5,7.5,0.5,TRUE,congruent,1,Inference
418,37180,4852,survey-multi-choice,5,268968,Speaker Unaware,4a,"{""Q0"":""No""}",no_belief,1,No,0,2,0,group1,speaker_unaware,5,0,8,6,1,7,0,5.5,7.5,0.5,FALSE,incongruent,0,Inference
419,37180,3432,survey-multi-choice,7,329927,Speaker Aware,4a,"{""Q0"":""No""}",belief,2,No,0,3,0,group1,speaker_aware,5,0,8,6,1,7,0,5.5,7.5,0.5,TRUE,congruent,0,Inference
420,37180,3674,survey-multi-choice,9,345223,Speaker Aware,4a,"{""Q0"":""Yes""}",belief,8,Yes,1,4,0,group1,speaker_aware,5,0,8,6,1,7,0,5.5,7.5,0.5,FALSE,incongruent,1,Inference
421,37180,3359,survey-multi-choice,11,374927,Speaker Unaware,4a,"{""Q0"":""Yes""}",no_belief,3,Yes,1,5,0,group1,speaker_unaware,5,0,8,6,1,7,0,5.5,7.5,0.5,TRUE,congruent,1,Inference
422,37180,2270,survey-multi-choice,13,386919,Speaker Aware,4a,"{""Q0"":""No""}",belief,7,No,0,6,0,group1,speaker_aware,5,0,8,6,1,7,0,5.5,7.5,0.5,TRUE,congruent,0,Inference
423,37180,1870,survey-multi-choice,15,394864,Speaker Unaware,4a,"{""Q0"":""Yes""}",no_belief,6,Yes,1,7,0,group1,speaker_unaware,5,0,8,6,1,7,0,5.5,7.5,0.5,TRUE,congruent,1,Inference
424,37180,5582,survey-multi-choice,17,451848,Speaker Aware,4a,"{""Q0"":""No""}",belief,5,No,0,8,0,group1,speaker_aware,5,0,8,6,1,7,0,5.5,7.5,0.5,TRUE,congruent,0,Inference
425,37832,6348,survey-multi-choice,3,55612,Speaker Aware,4a,"{""Q0"":""No""}",belief,4,No,0,1,0,group2,speaker_aware,12,1,10,12,1,9,1,12,9.5,1,TRUE,congruent,0,Inference
426,37832,6977,survey-multi-choice,5,128966,Speaker Unaware,4a,"{""Q0"":""No""}",no_belief,7,No,0,2,0,group2,speaker_unaware,12,1,10,12,1,9,1,12,9.5,1,FALSE,incongruent,0,Inference
427,37832,7777,survey-multi-choice,7,180279,Speaker Unaware,4a,"{""Q0"":""No""}",no_belief,2,No,0,3,0,group2,speaker_unaware,12,1,10,12,1,9,1,12,9.5,1,FALSE,incongruent,0,Inference
428,37832,3608,survey-multi-choice,9,263253,Speaker Unaware,4a,"{""Q0"":""Yes""}",no_belief,5,Yes,1,4,0,group2,speaker_unaware,12,1,10,12,1,9,1,12,9.5,1,TRUE,congruent,1,Inference
429,37832,6645,survey-multi-choice,11,324610,Speaker Aware,4a,"{""Q0"":""No""}",belief,1,No,0,5,0,group2,speaker_aware,12,1,10,12,1,9,1,12,9.5,1,TRUE,congruent,0,Inference
430,37832,10855,survey-multi-choice,13,360398,Speaker Aware,4a,"{""Q0"":""No""}",belief,6,No,0,6,0,group2,speaker_aware,12,1,10,12,1,9,1,12,9.5,1,TRUE,congruent,0,Inference
431,37832,9055,survey-multi-choice,15,407757,Speaker Aware,4a,"{""Q0"":""No""}",belief,3,No,0,7,0,group2,speaker_aware,12,1,10,12,1,9,1,12,9.5,1,TRUE,congruent,0,Inference
432,37832,19640,survey-multi-choice,17,482357,Speaker Unaware,4a,"{""Q0"":""Yes""}",no_belief,8,Yes,1,8,0,group2,speaker_unaware,12,1,10,12,1,9,1,12,9.5,1,TRUE,congruent,1,Inference
433,39212,3149,survey-multi-choice,3,54911,Speaker Unaware,4b,"{""Q0"":""Yes""}",no_belief,2,Yes,1,1,0,group2,speaker_unaware,9,0,10,12,1,8,1,10.5,9,0.5,FALSE,incongruent,0,Knowledge
434,39212,2104,survey-multi-choice,5,64345,Speaker Aware,4b,"{""Q0"":""No""}",belief,6,No,0,2,0,group2,speaker_aware,9,0,10,12,1,8,1,10.5,9,0.5,FALSE,incongruent,1,Knowledge
435,39212,5174,survey-multi-choice,7,101461,Speaker Unaware,4b,"{""Q0"":""Yes""}",no_belief,8,Yes,1,3,0,group2,speaker_unaware,9,0,10,12,1,8,1,10.5,9,0.5,FALSE,incongruent,0,Knowledge
436,39212,2652,survey-multi-choice,9,117797,Speaker Aware,4b,"{""Q0"":""No""}",belief,3,No,0,4,0,group2,speaker_aware,9,0,10,12,1,8,1,10.5,9,0.5,FALSE,incongruent,1,Knowledge
437,39212,3010,survey-multi-choice,11,130895,Speaker Aware,4b,"{""Q0"":""Yes""}",belief,4,Yes,1,5,0,group2,speaker_aware,9,0,10,12,1,8,1,10.5,9,0.5,TRUE,congruent,0,Knowledge
438,39212,1850,survey-multi-choice,13,142878,Speaker Aware,4b,"{""Q0"":""Yes""}",belief,1,Yes,1,6,0,group2,speaker_aware,9,0,10,12,1,8,1,10.5,9,0.5,TRUE,congruent,0,Knowledge
439,39212,3659,survey-multi-choice,15,164901,Speaker Unaware,4b,"{""Q0"":""No""}",no_belief,5,No,0,7,0,group2,speaker_unaware,9,0,10,12,1,8,1,10.5,9,0.5,TRUE,congruent,1,Knowledge
440,39212,2163,survey-multi-choice,17,182267,Speaker Unaware,4b,"{""Q0"":""No""}",no_belief,7,No,0,8,0,group2,speaker_unaware,9,0,10,12,1,8,1,10.5,9,0.5,TRUE,congruent,1,Knowledge
441,39665,7972,survey-multi-choice,3,54430,Speaker Unaware,4b,"{""Q0"":""No""}",no_belief,4,No,0,1,0,group1,speaker_unaware,11,1,8,11,1,8,1,11,8,1,TRUE,congruent,1,Knowledge
442,39665,3276,survey-multi-choice,5,106531,Speaker Unaware,4b,"{""Q0"":""No""}",no_belief,1,No,0,2,0,group1,speaker_unaware,11,1,8,11,1,8,1,11,8,1,TRUE,congruent,1,Knowledge
443,39665,4711,survey-multi-choice,7,159638,Speaker Aware,4b,"{""Q0"":""Yes""}",belief,5,Yes,1,3,0,group1,speaker_aware,11,1,8,11,1,8,1,11,8,1,TRUE,congruent,0,Knowledge
444,39665,4118,survey-multi-choice,9,204710,Speaker Aware,4b,"{""Q0"":""Yes""}",belief,7,Yes,1,4,0,group1,speaker_aware,11,1,8,11,1,8,1,11,8,1,TRUE,congruent,0,Knowledge
445,39665,4433,survey-multi-choice,11,233701,Speaker Unaware,4b,"{""Q0"":""No""}",no_belief,6,No,0,5,0,group1,speaker_unaware,11,1,8,11,1,8,1,11,8,1,TRUE,congruent,1,Knowledge
446,39665,4000,survey-multi-choice,13,282759,Speaker Unaware,4b,"{""Q0"":""No""}",no_belief,3,No,0,6,0,group1,speaker_unaware,11,1,8,11,1,8,1,11,8,1,TRUE,congruent,1,Knowledge
447,39665,5426,survey-multi-choice,15,336181,Speaker Aware,4b,"{""Q0"":""Yes""}",belief,2,Yes,1,7,0,group1,speaker_aware,11,1,8,11,1,8,1,11,8,1,TRUE,congruent,0,Knowledge
448,39665,3498,survey-multi-choice,17,386975,Speaker Aware,4b,"{""Q0"":""Yes""}",belief,8,Yes,1,8,0,group1,speaker_aware,11,1,8,11,1,8,1,11,8,1,TRUE,congruent,0,Knowledge
449,39934,4190,survey-multi-choice,3,58232,Speaker Aware,4a,"{""Q0"":""Yes""}",belief,2,Yes,1,1,0,group1,speaker_aware,10,0,10,12,1,10,0,11,10,0.5,FALSE,incongruent,1,Inference
450,39934,1819,survey-multi-choice,5,80231,Speaker Aware,4a,"{""Q0"":""Yes""}",belief,8,Yes,1,2,0,group1,speaker_aware,10,0,10,12,1,10,0,11,10,0.5,FALSE,incongruent,1,Inference
451,39934,2086,survey-multi-choice,7,97021,Speaker Aware,4a,"{""Q0"":""No""}",belief,7,No,0,3,0,group1,speaker_aware,10,0,10,12,1,10,0,11,10,0.5,TRUE,congruent,0,Inference
452,39934,1975,survey-multi-choice,9,127414,Speaker Unaware,4a,"{""Q0"":""Yes""}",no_belief,1,Yes,1,4,0,group1,speaker_unaware,10,0,10,12,1,10,0,11,10,0.5,TRUE,congruent,1,Inference
453,39934,1942,survey-multi-choice,11,144925,Speaker Unaware,4a,"{""Q0"":""Yes""}",no_belief,3,Yes,1,5,0,group1,speaker_unaware,10,0,10,12,1,10,0,11,10,0.5,TRUE,congruent,1,Inference
454,39934,2469,survey-multi-choice,13,170552,Speaker Aware,4a,"{""Q0"":""Yes""}",belief,5,Yes,1,6,0,group1,speaker_aware,10,0,10,12,1,10,0,11,10,0.5,FALSE,incongruent,1,Inference
455,39934,1906,survey-multi-choice,15,201831,Speaker Unaware,4a,"{""Q0"":""Yes""}",no_belief,6,Yes,1,7,0,group1,speaker_unaware,10,0,10,12,1,10,0,11,10,0.5,TRUE,congruent,1,Inference
456,39934,2204,survey-multi-choice,17,248742,Speaker Unaware,4a,"{""Q0"":""Yes""}",no_belief,4,Yes,1,8,0,group1,speaker_unaware,10,0,10,12,1,10,0,11,10,0.5,TRUE,congruent,1,Inference
457,40037,7822,survey-multi-choice,3,32435,Speaker Unaware,4b,"{""Q0"":""Yes""}",no_belief,8,Yes,1,1,0,group2,speaker_unaware,8,0,9,8,1,10,0,8,9.5,0.5,FALSE,incongruent,0,Knowledge
458,40037,4818,survey-multi-choice,5,46109,Speaker Aware,4b,"{""Q0"":""No""}",belief,1,No,0,2,0,group2,speaker_aware,8,0,9,8,1,10,0,8,9.5,0.5,FALSE,incongruent,1,Knowledge
459,40037,4453,survey-multi-choice,7,82018,Speaker Aware,4b,"{""Q0"":""Yes""}",belief,4,Yes,1,3,0,group2,speaker_aware,8,0,9,8,1,10,0,8,9.5,0.5,TRUE,congruent,0,Knowledge
460,40037,7159,survey-multi-choice,9,98855,Speaker Aware,4b,"{""Q0"":""Yes""}",belief,3,Yes,1,4,0,group2,speaker_aware,8,0,9,8,1,10,0,8,9.5,0.5,TRUE,congruent,0,Knowledge
461,40037,2672,survey-multi-choice,11,115437,Speaker Unaware,4b,"{""Q0"":""No""}",no_belief,7,No,0,5,0,group2,speaker_unaware,8,0,9,8,1,10,0,8,9.5,0.5,TRUE,congruent,1,Knowledge
462,40037,5464,survey-multi-choice,13,140111,Speaker Unaware,4b,"{""Q0"":""Yes""}",no_belief,2,Yes,1,6,0,group2,speaker_unaware,8,0,9,8,1,10,0,8,9.5,0.5,FALSE,incongruent,0,Knowledge
463,40037,4259,survey-multi-choice,15,157028,Speaker Unaware,4b,"{""Q0"":""No""}",no_belief,5,No,0,7,0,group2,speaker_unaware,8,0,9,8,1,10,0,8,9.5,0.5,TRUE,congruent,1,Knowledge
464,40037,3592,survey-multi-choice,17,177194,Speaker Aware,4b,"{""Q0"":""Yes""}",belief,6,Yes,1,8,0,group2,speaker_aware,8,0,9,8,1,10,0,8,9.5,0.5,TRUE,congruent,0,Knowledge
465,41357,6728,survey-multi-choice,3,419205,Speaker Unaware,4b,"{""Q0"":""No""}",no_belief,4,No,0,1,0,group1,speaker_unaware,7,1,9,8,1,9,1,7.5,9,1,TRUE,congruent,1,Knowledge
466,41357,3287,survey-multi-choice,5,444230,Speaker Aware,4b,"{""Q0"":""Yes""}",belief,7,Yes,1,2,0,group1,speaker_aware,7,1,9,8,1,9,1,7.5,9,1,TRUE,congruent,0,Knowledge
467,41357,3086,survey-multi-choice,7,483772,Speaker Aware,4b,"{""Q0"":""Yes""}",belief,5,Yes,1,3,0,group1,speaker_aware,7,1,9,8,1,9,1,7.5,9,1,TRUE,congruent,0,Knowledge
468,41357,2376,survey-multi-choice,9,510454,Speaker Unaware,4b,"{""Q0"":""No""}",no_belief,1,No,0,4,0,group1,speaker_unaware,7,1,9,8,1,9,1,7.5,9,1,TRUE,congruent,1,Knowledge
469,41357,5572,survey-multi-choice,11,554704,Speaker Aware,4b,"{""Q0"":""Yes""}",belief,2,Yes,1,5,0,group1,speaker_aware,7,1,9,8,1,9,1,7.5,9,1,TRUE,congruent,0,Knowledge
470,41357,2438,survey-multi-choice,13,613001,Speaker Aware,4b,"{""Q0"":""Yes""}",belief,8,Yes,1,6,0,group1,speaker_aware,7,1,9,8,1,9,1,7.5,9,1,TRUE,congruent,0,Knowledge
471,41357,2590,survey-multi-choice,15,645432,Speaker Unaware,4b,"{""Q0"":""No""}",no_belief,3,No,0,7,0,group1,speaker_unaware,7,1,9,8,1,9,1,7.5,9,1,TRUE,congruent,1,Knowledge
472,41357,1962,survey-multi-choice,17,661029,Speaker Unaware,4b,"{""Q0"":""No""}",no_belief,6,No,0,8,0,group1,speaker_unaware,7,1,9,8,1,9,1,7.5,9,1,TRUE,congruent,1,Knowledge
473,41422,2867,survey-multi-choice,3,120155,Speaker Aware,4b,"{""Q0"":""Yes""}",belief,8,Yes,1,1,0,group1,speaker_aware,6,0,7,7,1,8,0,6.5,7.5,0.5,TRUE,congruent,0,Knowledge
474,41422,4109,survey-multi-choice,5,184730,Speaker Unaware,4b,"{""Q0"":""No""}",no_belief,3,No,0,2,0,group1,speaker_unaware,6,0,7,7,1,8,0,6.5,7.5,0.5,TRUE,congruent,1,Knowledge
475,41422,2918,survey-multi-choice,7,216804,Speaker Unaware,4b,"{""Q0"":""No""}",no_belief,1,No,0,3,0,group1,speaker_unaware,6,0,7,7,1,8,0,6.5,7.5,0.5,TRUE,congruent,1,Knowledge
476,41422,3189,survey-multi-choice,9,249346,Speaker Aware,4b,"{""Q0"":""Yes""}",belief,7,Yes,1,4,0,group1,speaker_aware,6,0,7,7,1,8,0,6.5,7.5,0.5,TRUE,congruent,0,Knowledge
477,41422,2670,survey-multi-choice,11,315075,Speaker Aware,4b,"{""Q0"":""Yes""}",belief,2,Yes,1,5,0,group1,speaker_aware,6,0,7,7,1,8,0,6.5,7.5,0.5,TRUE,congruent,0,Knowledge
478,41422,2384,survey-multi-choice,13,341797,Speaker Unaware,4b,"{""Q0"":""No""}",no_belief,6,No,0,6,0,group1,speaker_unaware,6,0,7,7,1,8,0,6.5,7.5,0.5,TRUE,congruent,1,Knowledge
479,41422,5256,survey-multi-choice,15,387007,Speaker Aware,4b,"{""Q0"":""No""}",belief,5,No,0,7,0,group1,speaker_aware,6,0,7,7,1,8,0,6.5,7.5,0.5,FALSE,incongruent,1,Knowledge
480,41422,2786,survey-multi-choice,17,425329,Speaker Unaware,4b,"{""Q0"":""No""}",no_belief,4,No,0,8,0,group1,speaker_unaware,6,0,7,7,1,8,0,6.5,7.5,0.5,TRUE,congruent,1,Knowledge
481,41803,30141,survey-multi-choice,3,114309,Speaker Aware,4b,"{""Q0"":""No""}",belief,4,No,0,1,0,group2,speaker_aware,8,0,10,9,1,9,1,8.5,9.5,0.5,FALSE,incongruent,1,Knowledge
482,41803,7743,survey-multi-choice,5,155468,Speaker Aware,4b,"{""Q0"":""Yes""}",belief,1,Yes,1,2,0,group2,speaker_aware,8,0,10,9,1,9,1,8.5,9.5,0.5,TRUE,congruent,0,Knowledge
483,41803,17391,survey-multi-choice,7,217236,Speaker Unaware,4b,"{""Q0"":""No""}",no_belief,5,No,0,3,0,group2,speaker_unaware,8,0,10,9,1,9,1,8.5,9.5,0.5,TRUE,congruent,1,Knowledge
484,41803,8503,survey-multi-choice,9,279877,Speaker Unaware,4b,"{""Q0"":""Yes""}",no_belief,8,Yes,1,4,0,group2,speaker_unaware,8,0,10,9,1,9,1,8.5,9.5,0.5,FALSE,incongruent,0,Knowledge
485,41803,6586,survey-multi-choice,11,326429,Speaker Aware,4b,"{""Q0"":""Yes""}",belief,3,Yes,1,5,0,group2,speaker_aware,8,0,10,9,1,9,1,8.5,9.5,0.5,TRUE,congruent,0,Knowledge
486,41803,5993,survey-multi-choice,13,363165,Speaker Unaware,4b,"{""Q0"":""No""}",no_belief,7,No,0,6,0,group2,speaker_unaware,8,0,10,9,1,9,1,8.5,9.5,0.5,TRUE,congruent,1,Knowledge
487,41803,11033,survey-multi-choice,15,440150,Speaker Unaware,4b,"{""Q0"":""Yes""}",no_belief,2,Yes,1,7,0,group2,speaker_unaware,8,0,10,9,1,9,1,8.5,9.5,0.5,FALSE,incongruent,0,Knowledge
488,41803,6166,survey-multi-choice,17,480286,Speaker Aware,4b,"{""Q0"":""Yes""}",belief,6,Yes,1,8,0,group2,speaker_aware,8,0,10,9,1,9,1,8.5,9.5,0.5,TRUE,congruent,0,Knowledge
489,47499,3501,survey-multi-choice,3,112943,Speaker Aware,4b,"{""Q0"":""Yes""}",belief,8,Yes,1,1,0,group1,speaker_aware,9,0,8,10,1,8,0,9.5,8,0.5,TRUE,congruent,0,Knowledge
490,47499,5956,survey-multi-choice,5,195225,Speaker Unaware,4b,"{""Q0"":""No""}",no_belief,4,No,0,2,0,group1,speaker_unaware,9,0,8,10,1,8,0,9.5,8,0.5,TRUE,congruent,1,Knowledge
491,47499,2488,survey-multi-choice,7,207100,Speaker Unaware,4b,"{""Q0"":""No""}",no_belief,6,No,0,3,0,group1,speaker_unaware,9,0,8,10,1,8,0,9.5,8,0.5,TRUE,congruent,1,Knowledge
492,47499,2224,survey-multi-choice,9,229530,Speaker Unaware,4b,"{""Q0"":""No""}",no_belief,1,No,0,4,0,group1,speaker_unaware,9,0,8,10,1,8,0,9.5,8,0.5,TRUE,congruent,1,Knowledge
493,47499,3910,survey-multi-choice,11,272191,Speaker Aware,4b,"{""Q0"":""No""}",belief,5,No,0,5,0,group1,speaker_aware,9,0,8,10,1,8,0,9.5,8,0.5,FALSE,incongruent,1,Knowledge
494,47499,4723,survey-multi-choice,13,309588,Speaker Aware,4b,"{""Q0"":""Yes""}",belief,2,Yes,1,6,0,group1,speaker_aware,9,0,8,10,1,8,0,9.5,8,0.5,TRUE,congruent,0,Knowledge
495,47499,3016,survey-multi-choice,15,335898,Speaker Unaware,4b,"{""Q0"":""No""}",no_belief,3,No,0,7,0,group1,speaker_unaware,9,0,8,10,1,8,0,9.5,8,0.5,TRUE,congruent,1,Knowledge
496,47499,4277,survey-multi-choice,17,414658,Speaker Aware,4b,"{""Q0"":""Yes""}",belief,7,Yes,1,8,0,group1,speaker_aware,9,0,8,10,1,8,0,9.5,8,0.5,TRUE,congruent,0,Knowledge
497,48248,4290,survey-multi-choice,3,594504,Speaker Unaware,4b,"{""Q0"":""No""}",no_belief,5,No,0,1,0,group2,speaker_unaware,10,0,10,10,1,10,0,10,10,0.5,TRUE,congruent,1,Knowledge
498,48248,6674,survey-multi-choice,5,647121,Speaker Aware,4b,"{""Q0"":""Yes""}",belief,3,Yes,1,2,0,group2,speaker_aware,10,0,10,10,1,10,0,10,10,0.5,TRUE,congruent,0,Knowledge
499,48248,4004,survey-multi-choice,7,860928,Speaker Unaware,4b,"{""Q0"":""No""}",no_belief,7,No,0,3,0,group2,speaker_unaware,10,0,10,10,1,10,0,10,10,0.5,TRUE,congruent,1,Knowledge
500,48248,10500,survey-multi-choice,9,911502,Speaker Unaware,4b,"{""Q0"":""No""}",no_belief,8,No,0,4,0,group2,speaker_unaware,10,0,10,10,1,10,0,10,10,0.5,TRUE,congruent,1,Knowledge
501,48248,3098,survey-multi-choice,11,938868,Speaker Aware,4b,"{""Q0"":""Yes""}",belief,1,Yes,1,5,0,group2,speaker_aware,10,0,10,10,1,10,0,10,10,0.5,TRUE,congruent,0,Knowledge
502,48248,3666,survey-multi-choice,13,959838,Speaker Aware,4b,"{""Q0"":""No""}",belief,6,No,0,6,0,group2,speaker_aware,10,0,10,10,1,10,0,10,10,0.5,FALSE,incongruent,1,Knowledge
503,48248,3038,survey-multi-choice,15,997607,Speaker Unaware,4b,"{""Q0"":""No""}",no_belief,2,No,0,7,0,group2,speaker_unaware,10,0,10,10,1,10,0,10,10,0.5,TRUE,congruent,1,Knowledge
504,48248,3312,survey-multi-choice,17,1026872,Speaker Aware,4b,"{""Q0"":""No""}",belief,4,No,0,8,0,group2,speaker_aware,10,0,10,10,1,10,0,10,10,0.5,FALSE,incongruent,1,Knowledge
505,49247,1726,survey-multi-choice,3,131028,Speaker Unaware,4b,"{""Q0"":""No""}",no_belief,3,No,0,1,0,group1,speaker_unaware,3,0,9,4,0,8,0,3.5,8.5,0,TRUE,congruent,1,Knowledge
506,49247,1476,survey-multi-choice,5,139510,Speaker Aware,4b,"{""Q0"":""Yes""}",belief,7,Yes,1,2,0,group1,speaker_aware,3,0,9,4,0,8,0,3.5,8.5,0,TRUE,congruent,0,Knowledge
507,49247,3175,survey-multi-choice,7,144982,Speaker Aware,4b,"{""Q0"":""No""}",belief,2,No,0,3,0,group1,speaker_aware,3,0,9,4,0,8,0,3.5,8.5,0,FALSE,incongruent,1,Knowledge
508,49247,1723,survey-multi-choice,9,149130,Speaker Unaware,4b,"{""Q0"":""No""}",no_belief,1,No,0,4,0,group1,speaker_unaware,3,0,9,4,0,8,0,3.5,8.5,0,TRUE,congruent,1,Knowledge
509,49247,2244,survey-multi-choice,11,153731,Speaker Unaware,4b,"{""Q0"":""No""}",no_belief,4,No,0,5,0,group1,speaker_unaware,3,0,9,4,0,8,0,3.5,8.5,0,TRUE,congruent,1,Knowledge
510,49247,2067,survey-multi-choice,13,158244,Speaker Aware,4b,"{""Q0"":""Yes""}",belief,5,Yes,1,6,0,group1,speaker_aware,3,0,9,4,0,8,0,3.5,8.5,0,TRUE,congruent,0,Knowledge
511,49247,2213,survey-multi-choice,15,162472,Speaker Unaware,4b,"{""Q0"":""No""}",no_belief,6,No,0,7,0,group1,speaker_unaware,3,0,9,4,0,8,0,3.5,8.5,0,TRUE,congruent,1,Knowledge
512,49247,1857,survey-multi-choice,17,166463,Speaker Aware,4b,"{""Q0"":""No""}",belief,8,No,0,8,0,group1,speaker_aware,3,0,9,4,0,8,0,3.5,8.5,0,FALSE,incongruent,1,Knowledge
513,49429,5777,survey-multi-choice,3,100598,Speaker Aware,4b,"{""Q0"":""No""}",belief,3,No,0,1,0,group2,speaker_aware,7,0,8,7,1,10,0,7,9,0.5,FALSE,incongruent,1,Knowledge
514,49429,5499,survey-multi-choice,5,154556,Speaker Unaware,4b,"{""Q0"":""No""}",no_belief,5,No,0,2,0,group2,speaker_unaware,7,0,8,7,1,10,0,7,9,0.5,TRUE,congruent,1,Knowledge
515,49429,25767,survey-multi-choice,7,221870,Speaker Unaware,4b,"{""Q0"":""Yes""}",no_belief,8,Yes,1,3,0,group2,speaker_unaware,7,0,8,7,1,10,0,7,9,0.5,FALSE,incongruent,0,Knowledge
516,49429,3613,survey-multi-choice,9,349492,Speaker Aware,4b,"{""Q0"":""Yes""}",belief,1,Yes,1,4,0,group2,speaker_aware,7,0,8,7,1,10,0,7,9,0.5,TRUE,congruent,0,Knowledge
517,49429,3852,survey-multi-choice,11,368780,Speaker Aware,4b,"{""Q0"":""Yes""}",belief,6,Yes,1,5,0,group2,speaker_aware,7,0,8,7,1,10,0,7,9,0.5,TRUE,congruent,0,Knowledge
518,49429,5043,survey-multi-choice,13,405516,Speaker Unaware,4b,"{""Q0"":""No""}",no_belief,7,No,0,6,0,group2,speaker_unaware,7,0,8,7,1,10,0,7,9,0.5,TRUE,congruent,1,Knowledge
519,49429,3843,survey-multi-choice,15,448732,Speaker Unaware,4b,"{""Q0"":""No""}",no_belief,2,No,0,7,0,group2,speaker_unaware,7,0,8,7,1,10,0,7,9,0.5,TRUE,congruent,1,Knowledge
520,49429,3467,survey-multi-choice,17,489965,Speaker Aware,4b,"{""Q0"":""No""}",belief,4,No,0,8,0,group2,speaker_aware,7,0,8,7,1,10,0,7,9,0.5,FALSE,incongruent,1,Knowledge
521,49701,15602,survey-multi-choice,3,119750,Speaker Aware,4a,"{""Q0"":""Yes""}",belief,1,Yes,1,1,0,group2,speaker_aware,6,0,10,3,1,10,0,4.5,10,0.5,FALSE,incongruent,1,Inference
522,49701,6505,survey-multi-choice,5,181133,Speaker Unaware,4a,"{""Q0"":""Yes""}",no_belief,8,Yes,1,2,0,group2,speaker_unaware,6,0,10,3,1,10,0,4.5,10,0.5,TRUE,congruent,1,Inference
523,49701,4340,survey-multi-choice,7,226851,Speaker Aware,4a,"{""Q0"":""Yes""}",belief,4,Yes,1,3,0,group2,speaker_aware,6,0,10,3,1,10,0,4.5,10,0.5,FALSE,incongruent,1,Inference
524,49701,2913,survey-multi-choice,9,265852,Speaker Unaware,4a,"{""Q0"":""Yes""}",no_belief,2,Yes,1,4,0,group2,speaker_unaware,6,0,10,3,1,10,0,4.5,10,0.5,TRUE,congruent,1,Inference
525,49701,3678,survey-multi-choice,11,288014,Speaker Aware,4a,"{""Q0"":""No""}",belief,6,No,0,5,0,group2,speaker_aware,6,0,10,3,1,10,0,4.5,10,0.5,TRUE,congruent,0,Inference
526,49701,4588,survey-multi-choice,13,321305,Speaker Unaware,4a,"{""Q0"":""Yes""}",no_belief,7,Yes,1,6,0,group2,speaker_unaware,6,0,10,3,1,10,0,4.5,10,0.5,TRUE,congruent,1,Inference
527,49701,2469,survey-multi-choice,15,359858,Speaker Aware,4a,"{""Q0"":""No""}",belief,3,No,0,7,0,group2,speaker_aware,6,0,10,3,1,10,0,4.5,10,0.5,TRUE,congruent,0,Inference
528,49701,4257,survey-multi-choice,17,408783,Speaker Unaware,4a,"{""Q0"":""Yes""}",no_belief,5,Yes,1,8,0,group2,speaker_unaware,6,0,10,3,1,10,0,4.5,10,0.5,TRUE,congruent,1,Inference
529,50273,2793,survey-multi-choice,3,28787,Speaker Unaware,4a,"{""Q0"":""No""}",no_belief,1,No,0,1,0,group1,speaker_unaware,8,0,10,4,0,9,0,6,9.5,0,FALSE,incongruent,0,Inference
530,50273,1967,survey-multi-choice,5,88118,Speaker Unaware,4a,"{""Q0"":""Yes""}",no_belief,3,Yes,1,2,0,group1,speaker_unaware,8,0,10,4,0,9,0,6,9.5,0,TRUE,congruent,1,Inference
531,50273,2298,survey-multi-choice,7,110462,Speaker Aware,4a,"{""Q0"":""No""}",belief,2,No,0,3,0,group1,speaker_aware,8,0,10,4,0,9,0,6,9.5,0,TRUE,congruent,0,Inference
532,50273,1436,survey-multi-choice,9,125925,Speaker Unaware,4a,"{""Q0"":""Yes""}",no_belief,6,Yes,1,4,0,group1,speaker_unaware,8,0,10,4,0,9,0,6,9.5,0,TRUE,congruent,1,Inference
533,50273,1376,survey-multi-choice,11,134211,Speaker Aware,4a,"{""Q0"":""Yes""}",belief,8,Yes,1,5,0,group1,speaker_aware,8,0,10,4,0,9,0,6,9.5,0,FALSE,incongruent,1,Inference
534,50273,1334,survey-multi-choice,13,147802,Speaker Aware,4a,"{""Q0"":""Yes""}",belief,5,Yes,1,6,0,group1,speaker_aware,8,0,10,4,0,9,0,6,9.5,0,FALSE,incongruent,1,Inference
535,50273,1086,survey-multi-choice,15,165016,Speaker Unaware,4a,"{""Q0"":""No""}",no_belief,4,No,0,7,0,group1,speaker_unaware,8,0,10,4,0,9,0,6,9.5,0,FALSE,incongruent,0,Inference
536,50273,1579,survey-multi-choice,17,191965,Speaker Aware,4a,"{""Q0"":""No""}",belief,7,No,0,8,0,group1,speaker_aware,8,0,10,4,0,9,0,6,9.5,0,TRUE,congruent,0,Inference
537,50458,5549,survey-multi-choice,3,653706,Speaker Aware,4a,"{""Q0"":""Yes""}",belief,6,Yes,1,1,0,group2,speaker_aware,8,0,8,9,1,9,0,8.5,8.5,0.5,FALSE,incongruent,1,Inference
538,50458,3353,survey-multi-choice,5,674199,Speaker Aware,4a,"{""Q0"":""No""}",belief,3,No,0,2,0,group2,speaker_aware,8,0,8,9,1,9,0,8.5,8.5,0.5,TRUE,congruent,0,Inference
539,50458,2294,survey-multi-choice,7,715047,Speaker Unaware,4a,"{""Q0"":""Yes""}",no_belief,8,Yes,1,3,0,group2,speaker_unaware,8,0,8,9,1,9,0,8.5,8.5,0.5,TRUE,congruent,1,Inference
540,50458,2059,survey-multi-choice,9,747112,Speaker Aware,4a,"{""Q0"":""No""}",belief,1,No,0,4,0,group2,speaker_aware,8,0,8,9,1,9,0,8.5,8.5,0.5,TRUE,congruent,0,Inference
541,50458,5674,survey-multi-choice,11,786016,Speaker Unaware,4a,"{""Q0"":""No""}",no_belief,5,No,0,5,0,group2,speaker_unaware,8,0,8,9,1,9,0,8.5,8.5,0.5,FALSE,incongruent,0,Inference
542,50458,2099,survey-multi-choice,13,820392,Speaker Unaware,4a,"{""Q0"":""No""}",no_belief,7,No,0,6,0,group2,speaker_unaware,8,0,8,9,1,9,0,8.5,8.5,0.5,FALSE,incongruent,0,Inference
543,50458,1716,survey-multi-choice,15,844694,Speaker Aware,4a,"{""Q0"":""No""}",belief,4,No,0,7,0,group2,speaker_aware,8,0,8,9,1,9,0,8.5,8.5,0.5,TRUE,congruent,0,Inference
544,50458,3364,survey-multi-choice,17,882353,Speaker Unaware,4a,"{""Q0"":""No""}",no_belief,2,No,0,8,0,group2,speaker_unaware,8,0,8,9,1,9,0,8.5,8.5,0.5,FALSE,incongruent,0,Inference
545,50955,2754,survey-multi-choice,3,21864,Speaker Aware,4b,"{""Q0"":""No""}",belief,5,No,0,1,0,group1,speaker_aware,7,0,7,8,1,7,0,7.5,7,0.5,FALSE,incongruent,1,Knowledge
546,50955,2949,survey-multi-choice,5,27646,Speaker Unaware,4b,"{""Q0"":""Yes""}",no_belief,3,Yes,1,2,0,group1,speaker_unaware,7,0,7,8,1,7,0,7.5,7,0.5,FALSE,incongruent,0,Knowledge
547,50955,2083,survey-multi-choice,7,32093,Speaker Aware,4b,"{""Q0"":""No""}",belief,8,No,0,3,0,group1,speaker_aware,7,0,7,8,1,7,0,7.5,7,0.5,FALSE,incongruent,1,Knowledge
548,50955,2261,survey-multi-choice,9,36700,Speaker Aware,4b,"{""Q0"":""No""}",belief,7,No,0,4,0,group1,speaker_aware,7,0,7,8,1,7,0,7.5,7,0.5,FALSE,incongruent,1,Knowledge
549,50955,3872,survey-multi-choice,11,42884,Speaker Unaware,4b,"{""Q0"":""Yes""}",no_belief,6,Yes,1,5,0,group1,speaker_unaware,7,0,7,8,1,7,0,7.5,7,0.5,FALSE,incongruent,0,Knowledge
550,50955,2987,survey-multi-choice,13,48163,Speaker Unaware,4b,"{""Q0"":""Yes""}",no_belief,4,Yes,1,6,0,group1,speaker_unaware,7,0,7,8,1,7,0,7.5,7,0.5,FALSE,incongruent,0,Knowledge
551,50955,3624,survey-multi-choice,15,55702,Speaker Unaware,4b,"{""Q0"":""Yes""}",no_belief,1,Yes,1,7,0,group1,speaker_unaware,7,0,7,8,1,7,0,7.5,7,0.5,FALSE,incongruent,0,Knowledge
552,50955,2801,survey-multi-choice,17,61567,Speaker Aware,4b,"{""Q0"":""No""}",belief,2,No,0,8,0,group1,speaker_aware,7,0,7,8,1,7,0,7.5,7,0.5,FALSE,incongruent,1,Knowledge
553,51151,6887,survey-multi-choice,3,1169299,Speaker Aware,4a,"{""Q0"":""Yes""}",belief,6,Yes,1,1,0,group2,speaker_aware,7,0,9,7,1,9,1,7,9,0.5,FALSE,incongruent,1,Inference
554,51151,4293,survey-multi-choice,5,1332000,Speaker Unaware,4a,"{""Q0"":""No""}",no_belief,7,No,0,2,0,group2,speaker_unaware,7,0,9,7,1,9,1,7,9,0.5,FALSE,incongruent,0,Inference
555,51151,2481,survey-multi-choice,7,1344808,Speaker Unaware,4a,"{""Q0"":""Yes""}",no_belief,8,Yes,1,3,0,group2,speaker_unaware,7,0,9,7,1,9,1,7,9,0.5,TRUE,congruent,1,Inference
556,51151,2304,survey-multi-choice,9,1355968,Speaker Unaware,4a,"{""Q0"":""No""}",no_belief,2,No,0,4,0,group2,speaker_unaware,7,0,9,7,1,9,1,7,9,0.5,FALSE,incongruent,0,Inference
557,51151,1796,survey-multi-choice,11,1366160,Speaker Aware,4a,"{""Q0"":""Yes""}",belief,3,Yes,1,5,0,group2,speaker_aware,7,0,9,7,1,9,1,7,9,0.5,FALSE,incongruent,1,Inference
558,51151,2784,survey-multi-choice,13,1381472,Speaker Aware,4a,"{""Q0"":""No""}",belief,1,No,0,6,0,group2,speaker_aware,7,0,9,7,1,9,1,7,9,0.5,TRUE,congruent,0,Inference
559,51151,1965,survey-multi-choice,15,1402795,Speaker Aware,4a,"{""Q0"":""No""}",belief,4,No,0,7,0,group2,speaker_aware,7,0,9,7,1,9,1,7,9,0.5,TRUE,congruent,0,Inference
560,51151,2253,survey-multi-choice,17,1434321,Speaker Unaware,4a,"{""Q0"":""Yes""}",no_belief,5,Yes,1,8,0,group2,speaker_unaware,7,0,9,7,1,9,1,7,9,0.5,TRUE,congruent,1,Inference
561,53989,3773,survey-multi-choice,3,25366,Speaker Aware,4b,"{""Q0"":""No""}",belief,6,No,0,1,0,group2,speaker_aware,8,0,9,7,1,9,0,7.5,9,0.5,FALSE,incongruent,1,Knowledge
562,53989,3158,survey-multi-choice,5,55677,Speaker Aware,4b,"{""Q0"":""No""}",belief,3,No,0,2,0,group2,speaker_aware,8,0,9,7,1,9,0,7.5,9,0.5,FALSE,incongruent,1,Knowledge
563,53989,2526,survey-multi-choice,7,72528,Speaker Unaware,4b,"{""Q0"":""No""}",no_belief,7,No,0,3,0,group2,speaker_unaware,8,0,9,7,1,9,0,7.5,9,0.5,TRUE,congruent,1,Knowledge
564,53989,2617,survey-multi-choice,9,86174,Speaker Unaware,4b,"{""Q0"":""No""}",no_belief,8,No,0,4,0,group2,speaker_unaware,8,0,9,7,1,9,0,7.5,9,0.5,TRUE,congruent,1,Knowledge
