,subject,rt,trial_type,trial_index,time_elapsed,group,assignment,responses,knowledge,stimType,stimNum,answer,numeric_code,order,Condition,exp_inf_1,exp_inf_2,spon_1,spon_2,spon_3,rc_1,rc_2,exp_inf_mean,rc_mean,spon_agree,spon_true,rc_bins_1
1,635,2388,survey-multi-choice,7,138081,group2,5a,"{""Q0"":""Yes""}",explicit,Speaker Unaware,9,Yes,1,3,Speaker Unaware,7,8,0,0,NA,8,9,7.5,8.5,TRUE,0,low
2,635,5320,survey-multi-choice,3,56648,group2,5a,"{""Q0"":""No""}",explicit,Speaker Aware,1,No,0,1,Speaker Aware,7,8,0,0,NA,8,9,7.5,8.5,TRUE,0,low
3,635,3948,survey-multi-choice,5,112109,group2,5a,"{""Q0"":""Yes""}",implicit,Speaker Unaware,5,Yes,1,2,Speaker Unaware,7,8,0,0,NA,8,9,7.5,8.5,TRUE,0,low
4,635,1680,survey-multi-choice,15,297554,group2,5a,"{""Q0"":""Yes""}",explicit,Speaker Unaware,15,Yes,1,7,Speaker Unaware,7,8,0,0,NA,8,9,7.5,8.5,TRUE,0,low
5,635,1264,survey-multi-choice,17,331516,group2,5a,"{""Q0"":""Yes""}",implicit,Speaker Aware,10,Yes,1,8,Speaker Aware,7,8,0,0,NA,8,9,7.5,8.5,TRUE,0,low
6,635,3348,survey-multi-choice,19,336940,group2,5a,"{""Q0"":""Yes""}",implicit,Speaker Aware,16,Yes,1,9,Speaker Aware,7,8,0,0,NA,8,9,7.5,8.5,TRUE,0,low
7,635,1254,survey-multi-choice,21,411548,group2,5a,"{""Q0"":""Yes""}",implicit,Speaker Unaware,8,Yes,1,10,Speaker Unaware,7,8,0,0,NA,8,9,7.5,8.5,TRUE,0,low
8,635,1640,survey-multi-choice,23,434574,group2,5a,"{""Q0"":""Yes""}",implicit,Speaker Aware,11,Yes,1,11,Speaker Aware,7,8,0,0,NA,8,9,7.5,8.5,TRUE,0,low
9,635,7171,survey-multi-choice,25,443886,group2,5a,"{""Q0"":""No""}",implicit,Speaker Unaware,2,No,0,12,Speaker Unaware,7,8,0,0,NA,8,9,7.5,8.5,TRUE,0,low
10,635,1294,survey-multi-choice,27,512882,group2,5a,"{""Q0"":""Yes""}",explicit,Speaker Unaware,12,Yes,1,13,Speaker Unaware,7,8,0,0,NA,8,9,7.5,8.5,TRUE,0,low
11,635,1321,survey-multi-choice,29,550805,group2,5a,"{""Q0"":""No""}",explicit,Speaker Aware,4,No,0,14,Speaker Aware,7,8,0,0,NA,8,9,7.5,8.5,TRUE,0,low
12,635,1593,survey-multi-choice,31,597638,group2,5a,"{""Q0"":""No""}",explicit,Speaker Aware,6,No,0,15,Speaker Aware,7,8,0,0,NA,8,9,7.5,8.5,TRUE,0,low
13,635,1579,survey-multi-choice,33,621537,group2,5a,"{""Q0"":""Yes""}",explicit,Speaker Aware,3,Yes,1,16,Speaker Aware,7,8,0,0,NA,8,9,7.5,8.5,TRUE,0,low
14,635,1797,survey-multi-choice,9,199573,group2,5a,"{""Q0"":""No""}",implicit,Speaker Unaware,7,No,0,4,Speaker Unaware,7,8,0,0,NA,8,9,7.5,8.5,TRUE,0,low
15,635,1322,survey-multi-choice,11,226062,group2,5a,"{""Q0"":""Yes""}",explicit,Speaker Unaware,13,Yes,1,5,Speaker Unaware,7,8,0,0,NA,8,9,7.5,8.5,TRUE,0,low
16,635,1293,survey-multi-choice,13,257816,group2,5a,"{""Q0"":""No""}",implicit,Speaker Aware,14,No,0,6,Speaker Aware,7,8,0,0,NA,8,9,7.5,8.5,TRUE,0,low
17,703,5267,survey-multi-choice,9,253289,group2,5a,"{""Q0"":""No""}",implicit,Speaker Unaware,2,No,0,4,Speaker Unaware,11,11,1,1,NA,10,10,11,10,TRUE,1,high
18,703,6751,survey-multi-choice,3,122999,group2,5a,"{""Q0"":""Yes""}",implicit,Speaker Unaware,8,Yes,1,1,Speaker Unaware,11,11,1,1,NA,10,10,11,10,TRUE,1,high
19,703,3498,survey-multi-choice,5,159653,group2,5a,"{""Q0"":""No""}",implicit,Speaker Unaware,7,No,0,2,Speaker Unaware,11,11,1,1,NA,10,10,11,10,TRUE,1,high
20,703,8791,survey-multi-choice,7,209617,group2,5a,"{""Q0"":""No""}",implicit,Speaker Unaware,5,No,0,3,Speaker Unaware,11,11,1,1,NA,10,10,11,10,TRUE,1,high
21,703,3130,survey-multi-choice,17,375138,group2,5a,"{""Q0"":""No""}",explicit,Speaker Aware,1,No,0,8,Speaker Aware,11,11,1,1,NA,10,10,11,10,TRUE,1,high
22,703,4662,survey-multi-choice,11,289004,group2,5a,"{""Q0"":""Yes""}",explicit,Speaker Unaware,12,Yes,1,5,Speaker Unaware,11,11,1,1,NA,10,10,11,10,TRUE,1,high
23,703,3464,survey-multi-choice,13,317318,group2,5a,"{""Q0"":""No""}",implicit,Speaker Aware,11,No,0,6,Speaker Aware,11,11,1,1,NA,10,10,11,10,TRUE,1,high
24,703,4430,survey-multi-choice,15,338473,group2,5a,"{""Q0"":""Yes""}",explicit,Speaker Aware,6,Yes,1,7,Speaker Aware,11,11,1,1,NA,10,10,11,10,TRUE,1,high
25,703,2973,survey-multi-choice,23,478612,group2,5a,"{""Q0"":""No""}",explicit,Speaker Aware,4,No,0,11,Speaker Aware,11,11,1,1,NA,10,10,11,10,TRUE,1,high
26,703,3631,survey-multi-choice,25,502902,group2,5a,"{""Q0"":""Yes""}",explicit,Speaker Unaware,15,Yes,1,12,Speaker Unaware,11,11,1,1,NA,10,10,11,10,TRUE,1,high
27,703,2645,survey-multi-choice,27,537555,group2,5a,"{""Q0"":""No""}",explicit,Speaker Aware,3,No,0,13,Speaker Aware,11,11,1,1,NA,10,10,11,10,TRUE,1,high
28,703,2954,survey-multi-choice,29,567225,group2,5a,"{""Q0"":""Yes""}",explicit,Speaker Unaware,9,Yes,1,14,Speaker Unaware,11,11,1,1,NA,10,10,11,10,TRUE,1,high
29,703,3563,survey-multi-choice,31,600834,group2,5a,"{""Q0"":""Yes""}",explicit,Speaker Unaware,13,Yes,1,15,Speaker Unaware,11,11,1,1,NA,10,10,11,10,TRUE,1,high
30,703,3272,survey-multi-choice,33,627771,group2,5a,"{""Q0"":""No""}",implicit,Speaker Aware,14,No,0,16,Speaker Aware,11,11,1,1,NA,10,10,11,10,TRUE,1,high
31,703,5609,survey-multi-choice,19,420296,group2,5a,"{""Q0"":""Yes""}",implicit,Speaker Aware,16,Yes,1,9,Speaker Aware,11,11,1,1,NA,10,10,11,10,TRUE,1,high
32,703,3520,survey-multi-choice,21,450863,group2,5a,"{""Q0"":""Yes""}",implicit,Speaker Aware,10,Yes,1,10,Speaker Aware,11,11,1,1,NA,10,10,11,10,TRUE,1,high
33,766,10793,survey-multi-choice,3,106182,group3,5a,"{""Q0"":""No""}",explicit,Speaker Aware,13,No,0,1,Speaker Aware,11,10,0,0,NA,9,10,10.5,9.5,TRUE,0,high
34,766,3210,survey-multi-choice,15,416745,group3,5a,"{""Q0"":""No""}",explicit,Speaker Aware,12,No,0,7,Speaker Aware,11,10,0,0,NA,9,10,10.5,9.5,TRUE,0,high
35,766,5010,survey-multi-choice,9,262139,group3,5a,"{""Q0"":""No""}",explicit,Speaker Aware,15,No,0,4,Speaker Aware,11,10,0,0,NA,9,10,10.5,9.5,TRUE,0,high
36,766,7953,survey-multi-choice,11,318697,group3,5a,"{""Q0"":""No""}",explicit,Speaker Unaware,3,No,0,5,Speaker Unaware,11,10,0,0,NA,9,10,10.5,9.5,TRUE,0,high
37,766,4221,survey-multi-choice,13,380799,group3,5a,"{""Q0"":""No""}",explicit,Speaker Unaware,1,No,0,6,Speaker Unaware,11,10,0,0,NA,9,10,10.5,9.5,TRUE,0,high
38,766,4481,survey-multi-choice,29,846406,group3,5a,"{""Q0"":""Yes""}",explicit,Speaker Unaware,6,Yes,1,14,Speaker Unaware,11,10,0,0,NA,9,10,10.5,9.5,TRUE,0,high
39,766,3135,survey-multi-choice,5,136142,group3,5a,"{""Q0"":""Yes""}",implicit,Speaker Unaware,16,Yes,1,2,Speaker Unaware,11,10,0,0,NA,9,10,10.5,9.5,TRUE,0,high
40,766,5173,survey-multi-choice,7,214646,group3,5a,"{""Q0"":""Yes""}",implicit,Speaker Unaware,10,Yes,1,3,Speaker Unaware,11,10,0,0,NA,9,10,10.5,9.5,TRUE,0,high
41,766,5599,survey-multi-choice,17,479739,group3,5a,"{""Q0"":""Yes""}",implicit,Speaker Unaware,14,Yes,1,8,Speaker Unaware,11,10,0,0,NA,9,10,10.5,9.5,TRUE,0,high
42,766,8507,survey-multi-choice,19,568028,group3,5a,"{""Q0"":""No""}",implicit,Speaker Aware,2,No,0,9,Speaker Aware,11,10,0,0,NA,9,10,10.5,9.5,TRUE,0,high
43,766,7593,survey-multi-choice,21,612830,group3,5a,"{""Q0"":""No""}",implicit,Speaker Aware,7,No,0,10,Speaker Aware,11,10,0,0,NA,9,10,10.5,9.5,TRUE,0,high
44,766,8533,survey-multi-choice,23,676588,group3,5a,"{""Q0"":""No""}",implicit,Speaker Aware,5,No,0,11,Speaker Aware,11,10,0,0,NA,9,10,10.5,9.5,TRUE,0,high
45,766,5574,survey-multi-choice,25,753794,group3,5a,"{""Q0"":""No""}",explicit,Speaker Aware,9,No,0,12,Speaker Aware,11,10,0,0,NA,9,10,10.5,9.5,TRUE,0,high
46,766,6822,survey-multi-choice,27,817868,group3,5a,"{""Q0"":""No""}",implicit,Speaker Unaware,11,No,0,13,Speaker Unaware,11,10,0,0,NA,9,10,10.5,9.5,TRUE,0,high
47,766,4368,survey-multi-choice,31,921007,group3,5a,"{""Q0"":""Yes""}",implicit,Speaker Aware,8,Yes,1,15,Speaker Aware,11,10,0,0,NA,9,10,10.5,9.5,TRUE,0,high
48,766,17784,survey-multi-choice,33,976190,group3,5a,"{""Q0"":""No""}",explicit,Speaker Unaware,4,No,0,16,Speaker Unaware,11,10,0,0,NA,9,10,10.5,9.5,TRUE,0,high
49,5922,2746,survey-multi-choice,31,470993,group1,5a,"{""Q0"":""Yes""}",explicit,Speaker Unaware,10,Yes,1,15,Speaker Unaware,4,5,0,0,NA,10,9,4.5,9.5,TRUE,0,high
50,5922,4372,survey-multi-choice,21,268651,group1,5a,"{""Q0"":""Yes""}",explicit,Speaker Aware,5,Yes,1,10,Speaker Aware,4,5,0,0,NA,10,9,4.5,9.5,TRUE,0,high
51,5922,2667,survey-multi-choice,23,285700,group1,5a,"{""Q0"":""No""}",explicit,Speaker Unaware,14,No,0,11,Speaker Unaware,4,5,0,0,NA,10,9,4.5,9.5,TRUE,0,high
52,5922,23190,survey-multi-choice,25,318951,group1,5a,"{""Q0"":""Yes""}",implicit,Speaker Unaware,1,Yes,1,12,Speaker Unaware,4,5,0,0,NA,10,9,4.5,9.5,TRUE,0,high
53,5922,56052,survey-multi-choice,33,674335,group1,5a,"{""Q0"":""No""}",explicit,Speaker Unaware,16,No,0,16,Speaker Unaware,4,5,0,0,NA,10,9,4.5,9.5,TRUE,0,high
54,5922,80718,survey-multi-choice,29,465562,group1,5a,"{""Q0"":""Yes""}",implicit,Speaker Unaware,4,Yes,1,14,Speaker Unaware,4,5,0,0,NA,10,9,4.5,9.5,TRUE,0,high
55,5922,26931,survey-multi-choice,19,261088,group1,5a,"{""Q0"":""No""}",implicit,Speaker Aware,13,No,0,9,Speaker Aware,4,5,0,0,NA,10,9,4.5,9.5,TRUE,0,high
56,5922,3322,survey-multi-choice,17,231232,group1,5a,"{""Q0"":""No""}",explicit,Speaker Aware,8,No,0,8,Speaker Aware,4,5,0,0,NA,10,9,4.5,9.5,TRUE,0,high
57,5922,3633,survey-multi-choice,27,335187,group1,5a,"{""Q0"":""Yes""}",implicit,Speaker Aware,12,Yes,1,13,Speaker Aware,4,5,0,0,NA,10,9,4.5,9.5,TRUE,0,high
58,5922,4864,survey-multi-choice,3,41761,group1,5a,"{""Q0"":""No""}",implicit,Speaker Aware,15,No,0,1,Speaker Aware,4,5,0,0,NA,10,9,4.5,9.5,TRUE,0,high
59,5922,2728,survey-multi-choice,9,188585,group1,5a,"{""Q0"":""No""}",explicit,Speaker Unaware,11,No,0,4,Speaker Unaware,4,5,0,0,NA,10,9,4.5,9.5,TRUE,0,high
60,5922,2378,survey-multi-choice,5,81308,group1,5a,"{""Q0"":""No""}",implicit,Speaker Unaware,3,No,0,2,Speaker Unaware,4,5,0,0,NA,10,9,4.5,9.5,TRUE,0,high
61,5922,21014,survey-multi-choice,7,169921,group1,5a,"{""Q0"":""No""}",explicit,Speaker Aware,2,No,0,3,Speaker Aware,4,5,0,0,NA,10,9,4.5,9.5,TRUE,0,high
62,5922,3202,survey-multi-choice,15,225097,group1,5a,"{""Q0"":""No""}",implicit,Speaker Aware,9,No,0,7,Speaker Aware,4,5,0,0,NA,10,9,4.5,9.5,TRUE,0,high
63,5922,2186,survey-multi-choice,13,201121,group1,5a,"{""Q0"":""No""}",explicit,Speaker Aware,7,No,0,6,Speaker Aware,4,5,0,0,NA,10,9,4.5,9.5,TRUE,0,high
64,5922,1693,survey-multi-choice,11,194074,group1,5a,"{""Q0"":""Yes""}",implicit,Speaker Unaware,6,Yes,1,5,Speaker Unaware,4,5,0,0,NA,10,9,4.5,9.5,TRUE,0,high
65,7226,1346,survey-multi-choice,13,128907,group1,5a,"{""Q0"":""No""}",implicit,Speaker Unaware,1,No,0,6,Speaker Unaware,5,8,1,0,1,8,8,6.5,8,FALSE,1,low
66,7226,5123,survey-multi-choice,7,75398,group1,5a,"{""Q0"":""Yes""}",implicit,Speaker Unaware,3,Yes,1,3,Speaker Unaware,5,8,1,0,1,8,8,6.5,8,FALSE,1,low
67,7226,1326,survey-multi-choice,9,102184,group1,5a,"{""Q0"":""Yes""}",implicit,Speaker Aware,15,Yes,1,4,Speaker Aware,5,8,1,0,1,8,8,6.5,8,FALSE,1,low
68,7226,2475,survey-multi-choice,11,119210,group1,5a,"{""Q0"":""No""}",explicit,Speaker Unaware,11,No,0,5,Speaker Unaware,5,8,1,0,1,8,8,6.5,8,FALSE,1,low
69,7226,1335,survey-multi-choice,27,256867,group1,5a,"{""Q0"":""No""}",explicit,Speaker Aware,5,No,0,13,Speaker Aware,5,8,1,0,1,8,8,6.5,8,FALSE,1,low
70,7226,1447,survey-multi-choice,29,275376,group1,5a,"{""Q0"":""Yes""}",explicit,Speaker Unaware,10,Yes,1,14,Speaker Unaware,5,8,1,0,1,8,8,6.5,8,FALSE,1,low
71,7226,4938,survey-multi-choice,3,34048,group1,5a,"{""Q0"":""Yes""}",implicit,Speaker Unaware,6,Yes,1,1,Speaker Unaware,5,8,1,0,1,8,8,6.5,8,FALSE,1,low
72,7226,2256,survey-multi-choice,5,62992,group1,5a,"{""Q0"":""No""}",explicit,Speaker Aware,2,No,0,2,Speaker Aware,5,8,1,0,1,8,8,6.5,8,FALSE,1,low
73,7226,1507,survey-multi-choice,17,166144,group1,5a,"{""Q0"":""Yes""}",explicit,Speaker Unaware,14,Yes,1,8,Speaker Unaware,5,8,1,0,1,8,8,6.5,8,FALSE,1,low
74,7226,1585,survey-multi-choice,19,180742,group1,5a,"{""Q0"":""No""}",implicit,Speaker Aware,13,No,0,9,Speaker Aware,5,8,1,0,1,8,8,6.5,8,FALSE,1,low
75,7226,1449,survey-multi-choice,21,194012,group1,5a,"{""Q0"":""Yes""}",implicit,Speaker Unaware,4,Yes,1,10,Speaker Unaware,5,8,1,0,1,8,8,6.5,8,FALSE,1,low
76,7226,2553,survey-multi-choice,15,152344,group1,5a,"{""Q0"":""No""}",explicit,Speaker Aware,7,No,0,7,Speaker Aware,5,8,1,0,1,8,8,6.5,8,FALSE,1,low
77,7226,2100,survey-multi-choice,25,234505,group1,5a,"{""Q0"":""No""}",explicit,Speaker Aware,8,No,0,12,Speaker Aware,5,8,1,0,1,8,8,6.5,8,FALSE,1,low
78,7226,1552,survey-multi-choice,23,211206,group1,5a,"{""Q0"":""No""}",implicit,Speaker Aware,12,No,0,11,Speaker Aware,5,8,1,0,1,8,8,6.5,8,FALSE,1,low
79,7226,970,survey-multi-choice,33,310397,group1,5a,"{""Q0"":""Yes""}",explicit,Speaker Unaware,16,Yes,1,16,Speaker Unaware,5,8,1,0,1,8,8,6.5,8,FALSE,1,low
80,7226,1295,survey-multi-choice,31,293556,group1,5a,"{""Q0"":""No""}",implicit,Speaker Aware,9,No,0,15,Speaker Aware,5,8,1,0,1,8,8,6.5,8,FALSE,1,low
81,7329,2070,survey-multi-choice,15,110319,group1,5a,"{""Q0"":""Yes""}",explicit,Speaker Unaware,10,Yes,1,7,Speaker Unaware,0,0,0,0,NA,2,2,0,2,TRUE,0,low
82,7329,3123,survey-multi-choice,17,118397,group1,5a,"{""Q0"":""Yes""}",explicit,Speaker Aware,2,Yes,1,8,Speaker Aware,0,0,0,0,NA,2,2,0,2,TRUE,0,low
83,7329,2542,survey-multi-choice,19,123949,group1,5a,"{""Q0"":""Yes""}",implicit,Speaker Unaware,6,Yes,1,9,Speaker Unaware,0,0,0,0,NA,2,2,0,2,TRUE,0,low
84,7329,3117,survey-multi-choice,25,143621,group1,5a,"{""Q0"":""Yes""}",implicit,Speaker Unaware,4,Yes,1,12,Speaker Unaware,0,0,0,0,NA,2,2,0,2,TRUE,0,low
85,7329,3589,survey-multi-choice,27,150483,group1,5a,"{""Q0"":""Yes""}",explicit,Speaker Unaware,16,Yes,1,13,Speaker Unaware,0,0,0,0,NA,2,2,0,2,TRUE,0,low
86,7329,3973,survey-multi-choice,29,157747,group1,5a,"{""Q0"":""Yes""}",explicit,Speaker Unaware,11,Yes,1,14,Speaker Unaware,0,0,0,0,NA,2,2,0,2,TRUE,0,low
87,7329,3899,survey-multi-choice,3,65755,group1,5a,"{""Q0"":""Yes""}",implicit,Speaker Aware,15,Yes,1,1,Speaker Aware,0,0,0,0,NA,2,2,0,2,TRUE,0,low
88,7329,2644,survey-multi-choice,31,163682,group1,5a,"{""Q0"":""Yes""}",implicit,Speaker Aware,9,Yes,1,15,Speaker Aware,0,0,0,0,NA,2,2,0,2,TRUE,0,low
89,7329,2343,survey-multi-choice,33,169562,group1,5a,"{""Q0"":""Yes""}",explicit,Speaker Unaware,14,Yes,1,16,Speaker Unaware,0,0,0,0,NA,2,2,0,2,TRUE,0,low
90,7329,4293,survey-multi-choice,9,90448,group1,5a,"{""Q0"":""Yes""}",implicit,Speaker Aware,12,Yes,1,4,Speaker Aware,0,0,0,0,NA,2,2,0,2,TRUE,0,low
91,7329,4948,survey-multi-choice,11,98775,group1,5a,"{""Q0"":""Yes""}",implicit,Speaker Aware,13,Yes,1,5,Speaker Aware,0,0,0,0,NA,2,2,0,2,TRUE,0,low
92,7329,2774,survey-multi-choice,13,105151,group1,5a,"{""Q0"":""Yes""}",implicit,Speaker Unaware,1,Yes,1,6,Speaker Unaware,0,0,0,0,NA,2,2,0,2,TRUE,0,low
93,7329,4311,survey-multi-choice,5,73529,group1,5a,"{""Q0"":""Yes""}",implicit,Speaker Unaware,3,Yes,1,2,Speaker Unaware,0,0,0,0,NA,2,2,0,2,TRUE,0,low
94,7329,4981,survey-multi-choice,7,82680,group1,5a,"{""Q0"":""Yes""}",explicit,Speaker Aware,5,Yes,1,3,Speaker Aware,0,0,0,0,NA,2,2,0,2,TRUE,0,low
95,7329,2820,survey-multi-choice,21,130340,group1,5a,"{""Q0"":""Yes""}",explicit,Speaker Aware,7,Yes,1,10,Speaker Aware,0,0,0,0,NA,2,2,0,2,TRUE,0,low
96,7329,2374,survey-multi-choice,23,136388,group1,5a,"{""Q0"":""Yes""}",explicit,Speaker Aware,8,Yes,1,11,Speaker Aware,0,0,0,0,NA,2,2,0,2,TRUE,0,low
97,9604,41156,survey-multi-choice,3,101121,group1,5a,"{""Q0"":""Yes""}",implicit,Speaker Aware,13,Yes,1,1,Speaker Aware,9,11,1,1,NA,10,10,10,10,TRUE,1,high
98,9604,3070,survey-multi-choice,5,123574,group1,5a,"{""Q0"":""No""}",explicit,Speaker Unaware,11,No,0,2,Speaker Unaware,9,11,1,1,NA,10,10,10,10,TRUE,1,high
99,9604,3309,survey-multi-choice,7,233447,group1,5a,"{""Q0"":""No""}",explicit,Speaker Aware,2,No,0,3,Speaker Aware,9,11,1,1,NA,10,10,10,10,TRUE,1,high
100,9604,2370,survey-multi-choice,9,268656,group1,5a,"{""Q0"":""Yes""}",explicit,Speaker Unaware,10,Yes,1,4,Speaker Unaware,9,11,1,1,NA,10,10,10,10,TRUE,1,high
101,9604,1849,survey-multi-choice,11,306851,group1,5a,"{""Q0"":""No""}",explicit,Speaker Aware,7,No,0,5,Speaker Aware,9,11,1,1,NA,10,10,10,10,TRUE,1,high
102,9604,2733,survey-multi-choice,13,338973,group1,5a,"{""Q0"":""No""}",explicit,Speaker Aware,8,No,0,6,Speaker Aware,9,11,1,1,NA,10,10,10,10,TRUE,1,high
103,9604,1800,survey-multi-choice,15,358985,group1,5a,"{""Q0"":""Yes""}",implicit,Speaker Unaware,6,Yes,1,7,Speaker Unaware,9,11,1,1,NA,10,10,10,10,TRUE,1,high
104,9604,1546,survey-multi-choice,17,383798,group1,5a,"{""Q0"":""Yes""}",implicit,Speaker Unaware,4,Yes,1,8,Speaker Unaware,9,11,1,1,NA,10,10,10,10,TRUE,1,high
105,9604,2704,survey-multi-choice,19,407879,group1,5a,"{""Q0"":""No""}",implicit,Speaker Aware,15,No,0,9,Speaker Aware,9,11,1,1,NA,10,10,10,10,TRUE,1,high
106,9604,1790,survey-multi-choice,21,450351,group1,5a,"{""Q0"":""Yes""}",implicit,Speaker Unaware,1,Yes,1,10,Speaker Unaware,9,11,1,1,NA,10,10,10,10,TRUE,1,high
107,9604,2791,survey-multi-choice,23,485974,group1,5a,"{""Q0"":""Yes""}",explicit,Speaker Aware,5,Yes,1,11,Speaker Aware,9,11,1,1,NA,10,10,10,10,TRUE,1,high
108,9604,1854,survey-multi-choice,25,516907,group1,5a,"{""Q0"":""Yes""}",implicit,Speaker Unaware,3,Yes,1,12,Speaker Unaware,9,11,1,1,NA,10,10,10,10,TRUE,1,high
109,9604,1583,survey-multi-choice,27,527775,group1,5a,"{""Q0"":""Yes""}",implicit,Speaker Aware,9,Yes,1,13,Speaker Aware,9,11,1,1,NA,10,10,10,10,TRUE,1,high
110,9604,1389,survey-multi-choice,29,549842,group1,5a,"{""Q0"":""No""}",implicit,Speaker Aware,12,No,0,14,Speaker Aware,9,11,1,1,NA,10,10,10,10,TRUE,1,high
111,9604,1446,survey-multi-choice,31,572101,group1,5a,"{""Q0"":""Yes""}",explicit,Speaker Unaware,16,Yes,1,15,Speaker Unaware,9,11,1,1,NA,10,10,10,10,TRUE,1,high
112,9604,1303,survey-multi-choice,33,591573,group1,5a,"{""Q0"":""Yes""}",explicit,Speaker Unaware,14,Yes,1,16,Speaker Unaware,9,11,1,1,NA,10,10,10,10,TRUE,1,high
113,10015,3613,survey-multi-choice,33,1690862,group4,5a,"{""Q0"":""Yes""}",explicit,Speaker Unaware,8,Yes,1,16,Speaker Unaware,11,11,1,1,NA,10,10,11,10,TRUE,1,high
114,10015,5348,survey-multi-choice,7,966264,group4,5a,"{""Q0"":""No""}",implicit,Speaker Aware,1,No,0,3,Speaker Aware,11,11,1,1,NA,10,10,11,10,TRUE,1,high
115,10015,3977,survey-multi-choice,31,1629787,group4,5a,"{""Q0"":""No""}",explicit,Speaker Unaware,7,No,0,15,Speaker Unaware,11,11,1,1,NA,10,10,11,10,TRUE,1,high
116,10015,4212,survey-multi-choice,15,1183394,group4,5a,"{""Q0"":""Yes""}",implicit,Speaker Unaware,12,Yes,1,7,Speaker Unaware,11,11,1,1,NA,10,10,11,10,TRUE,1,high
117,10015,3146,survey-multi-choice,17,1232097,group4,5a,"{""Q0"":""Yes""}",implicit,Speaker Unaware,15,Yes,1,8,Speaker Unaware,11,11,1,1,NA,10,10,11,10,TRUE,1,high
118,10015,4844,survey-multi-choice,19,1294451,group4,5a,"{""Q0"":""Yes""}",implicit,Speaker Unaware,13,Yes,1,9,Speaker Unaware,11,11,1,1,NA,10,10,11,10,TRUE,1,high
119,10015,3650,survey-multi-choice,21,1380662,group4,5a,"{""Q0"":""Yes""}",implicit,Speaker Unaware,9,Yes,1,10,Speaker Unaware,11,11,1,1,NA,10,10,11,10,TRUE,1,high
120,10015,2963,survey-multi-choice,23,1425069,group4,5a,"{""Q0"":""No""}",explicit,Speaker Aware,11,No,0,11,Speaker Aware,11,11,1,1,NA,10,10,11,10,TRUE,1,high
121,10015,3339,survey-multi-choice,25,1476124,group4,5a,"{""Q0"":""Yes""}",explicit,Speaker Aware,10,Yes,1,12,Speaker Aware,11,11,1,1,NA,10,10,11,10,TRUE,1,high
122,10015,5939,survey-multi-choice,27,1527325,group4,5a,"{""Q0"":""No""}",explicit,Speaker Aware,14,No,0,13,Speaker Aware,11,11,1,1,NA,10,10,11,10,TRUE,1,high
123,10015,3692,survey-multi-choice,29,1579277,group4,5a,"{""Q0"":""No""}",implicit,Speaker Aware,4,No,0,14,Speaker Aware,11,11,1,1,NA,10,10,11,10,TRUE,1,high
124,10015,14652,survey-multi-choice,3,836103,group4,5a,"{""Q0"":""No""}",explicit,Speaker Unaware,2,No,0,1,Speaker Unaware,11,11,1,1,NA,10,10,11,10,TRUE,1,high
125,10015,7155,survey-multi-choice,5,904791,group4,5a,"{""Q0"":""Yes""}",explicit,Speaker Aware,16,Yes,1,2,Speaker Aware,11,11,1,1,NA,10,10,11,10,TRUE,1,high
126,10015,5731,survey-multi-choice,9,1052805,group4,5a,"{""Q0"":""Yes""}",explicit,Speaker Unaware,5,Yes,1,4,Speaker Unaware,11,11,1,1,NA,10,10,11,10,TRUE,1,high
127,10015,4373,survey-multi-choice,11,1118312,group4,5a,"{""Q0"":""Yes""}",implicit,Speaker Aware,3,Yes,1,5,Speaker Aware,11,11,1,1,NA,10,10,11,10,TRUE,1,high
128,10015,8657,survey-multi-choice,13,1166111,group4,5a,"{""Q0"":""Yes""}",implicit,Speaker Aware,6,Yes,1,6,Speaker Aware,11,11,1,1,NA,10,10,11,10,TRUE,1,high
129,12153,14433,survey-multi-choice,3,174283,group2,5a,"{""Q0"":""No""}",implicit,Speaker Unaware,8,No,0,1,Speaker Unaware,14,14,1,0,1,10,10,14,10,FALSE,1,high
130,12153,4171,survey-multi-choice,11,338009,group2,5a,"{""Q0"":""Yes""}",explicit,Speaker Aware,4,Yes,1,5,Speaker Aware,14,14,1,0,1,10,10,14,10,FALSE,1,high
131,12153,2701,survey-multi-choice,13,366130,group2,5a,"{""Q0"":""Yes""}",explicit,Speaker Unaware,9,Yes,1,6,Speaker Unaware,14,14,1,0,1,10,10,14,10,FALSE,1,high
132,12153,6884,survey-multi-choice,15,400470,group2,5a,"{""Q0"":""Yes""}",explicit,Speaker Unaware,13,Yes,1,7,Speaker Unaware,14,14,1,0,1,10,10,14,10,FALSE,1,high
133,12153,3051,survey-multi-choice,17,432151,group2,5a,"{""Q0"":""Yes""}",explicit,Speaker Aware,3,Yes,1,8,Speaker Aware,14,14,1,0,1,10,10,14,10,FALSE,1,high
134,12153,10585,survey-multi-choice,19,482114,group2,5a,"{""Q0"":""No""}",implicit,Speaker Unaware,5,No,0,9,Speaker Unaware,14,14,1,0,1,10,10,14,10,FALSE,1,high
135,12153,3917,survey-multi-choice,21,521163,group2,5a,"{""Q0"":""No""}",explicit,Speaker Aware,1,No,0,10,Speaker Aware,14,14,1,0,1,10,10,14,10,FALSE,1,high
136,12153,2887,survey-multi-choice,23,557583,group2,5a,"{""Q0"":""Yes""}",implicit,Speaker Aware,10,Yes,1,11,Speaker Aware,14,14,1,0,1,10,10,14,10,FALSE,1,high
137,12153,2512,survey-multi-choice,25,593328,group2,5a,"{""Q0"":""Yes""}",explicit,Speaker Unaware,12,Yes,1,12,Speaker Unaware,14,14,1,0,1,10,10,14,10,FALSE,1,high
138,12153,3076,survey-multi-choice,27,632674,group2,5a,"{""Q0"":""No""}",implicit,Speaker Aware,14,No,0,13,Speaker Aware,14,14,1,0,1,10,10,14,10,FALSE,1,high
139,12153,3226,survey-multi-choice,29,659720,group2,5a,"{""Q0"":""Yes""}",explicit,Speaker Unaware,15,Yes,1,14,Speaker Unaware,14,14,1,0,1,10,10,14,10,FALSE,1,high
140,12153,3427,survey-multi-choice,5,205426,group2,5a,"{""Q0"":""Yes""}",explicit,Speaker Aware,6,Yes,1,2,Speaker Aware,14,14,1,0,1,10,10,14,10,FALSE,1,high
141,12153,9218,survey-multi-choice,7,263911,group2,5a,"{""Q0"":""Yes""}",implicit,Speaker Unaware,2,Yes,1,3,Speaker Unaware,14,14,1,0,1,10,10,14,10,FALSE,1,high
142,12153,3217,survey-multi-choice,9,297509,group2,5a,"{""Q0"":""No""}",implicit,Speaker Aware,11,No,0,4,Speaker Aware,14,14,1,0,1,10,10,14,10,FALSE,1,high
143,12153,3174,survey-multi-choice,33,738861,group2,5a,"{""Q0"":""No""}",implicit,Speaker Unaware,7,No,0,16,Speaker Unaware,14,14,1,0,1,10,10,14,10,FALSE,1,high
144,12153,2272,survey-multi-choice,31,708787,group2,5a,"{""Q0"":""Yes""}",implicit,Speaker Aware,16,Yes,1,15,Speaker Aware,14,14,1,0,1,10,10,14,10,FALSE,1,high
145,15234,10665,survey-multi-choice,33,248967,group1,5a,"{""Q0"":""No""}",implicit,Speaker Unaware,4,No,0,16,Speaker Unaware,10,11,1,0,0,10,10,10.5,10,FALSE,0,high
146,15234,8549,survey-multi-choice,31,229945,group1,5a,"{""Q0"":""Yes""}",implicit,Speaker Aware,12,Yes,1,15,Speaker Aware,10,11,1,0,0,10,10,10.5,10,FALSE,0,high
147,15234,1904,survey-multi-choice,11,76284,group1,5a,"{""Q0"":""Yes""}",explicit,Speaker Unaware,11,Yes,1,5,Speaker Unaware,10,11,1,0,0,10,10,10.5,10,FALSE,0,high
148,15234,17150,survey-multi-choice,19,132404,group1,5a,"{""Q0"":""No""}",explicit,Speaker Aware,5,No,0,9,Speaker Aware,10,11,1,0,0,10,10,10.5,10,FALSE,0,high
149,15234,5634,survey-multi-choice,5,40914,group1,5a,"{""Q0"":""No""}",explicit,Speaker Aware,2,No,0,2,Speaker Aware,10,11,1,0,0,10,10,10.5,10,FALSE,0,high
150,15234,1707,survey-multi-choice,15,95680,group1,5a,"{""Q0"":""Yes""}",implicit,Speaker Aware,9,Yes,1,7,Speaker Aware,10,11,1,0,0,10,10,10.5,10,FALSE,0,high
151,15234,9075,survey-multi-choice,17,109918,group1,5a,"{""Q0"":""Yes""}",explicit,Speaker Aware,8,Yes,1,8,Speaker Aware,10,11,1,0,0,10,10,10.5,10,FALSE,0,high
152,15234,6359,survey-multi-choice,9,65010,group1,5a,"{""Q0"":""Yes""}",implicit,Speaker Unaware,3,Yes,1,4,Speaker Unaware,10,11,1,0,0,10,10,10.5,10,FALSE,0,high
153,15234,1748,survey-multi-choice,7,53421,group1,5a,"{""Q0"":""No""}",explicit,Speaker Aware,7,No,0,3,Speaker Aware,10,11,1,0,0,10,10,10.5,10,FALSE,0,high
154,15234,37909,survey-multi-choice,29,216024,group1,5a,"{""Q0"":""Yes""}",implicit,Speaker Aware,13,Yes,1,14,Speaker Aware,10,11,1,0,0,10,10,10.5,10,FALSE,0,high
155,15234,2904,survey-multi-choice,25,160954,group1,5a,"{""Q0"":""Yes""}",implicit,Speaker Unaware,6,Yes,1,12,Speaker Unaware,10,11,1,0,0,10,10,10.5,10,FALSE,0,high
156,15234,6833,survey-multi-choice,27,172614,group1,5a,"{""Q0"":""No""}",implicit,Speaker Aware,15,No,0,13,Speaker Aware,10,11,1,0,0,10,10,10.5,10,FALSE,0,high
157,15234,11037,survey-multi-choice,3,27774,group1,5a,"{""Q0"":""No""}",implicit,Speaker Unaware,1,No,0,1,Speaker Unaware,10,11,1,0,0,10,10,10.5,10,FALSE,0,high
158,15234,6557,survey-multi-choice,13,87718,group1,5a,"{""Q0"":""Yes""}",explicit,Speaker Unaware,14,Yes,1,6,Speaker Unaware,10,11,1,0,0,10,10,10.5,10,FALSE,0,high
159,15234,5916,survey-multi-choice,21,143275,group1,5a,"{""Q0"":""Yes""}",explicit,Speaker Unaware,16,Yes,1,10,Speaker Unaware,10,11,1,0,0,10,10,10.5,10,FALSE,0,high
160,15234,5022,survey-multi-choice,23,153070,group1,5a,"{""Q0"":""Yes""}",explicit,Speaker Unaware,10,Yes,1,11,Speaker Unaware,10,11,1,0,0,10,10,10.5,10,FALSE,0,high
161,18343,3596,survey-multi-choice,33,1649702,group3,5a,"{""Q0"":""No""}",implicit,Speaker Aware,2,No,0,16,Speaker Aware,4,0,0,0,NA,8,6,2,7,TRUE,0,low
162,18343,34298,survey-multi-choice,5,400964,group3,5a,"{""Q0"":""Yes""}",explicit,Speaker Aware,9,Yes,1,2,Speaker Aware,4,0,0,0,NA,8,6,2,7,TRUE,0,low
163,18343,7048,survey-multi-choice,7,482853,group3,5a,"{""Q0"":""Yes""}",explicit,Speaker Aware,15,Yes,1,3,Speaker Aware,4,0,0,0,NA,8,6,2,7,TRUE,0,low
164,18343,13722,survey-multi-choice,11,617060,group3,5a,"{""Q0"":""Yes""}",implicit,Speaker Unaware,11,Yes,1,5,Speaker Unaware,4,0,0,0,NA,8,6,2,7,TRUE,0,low
165,18343,9241,survey-multi-choice,13,746276,group3,5a,"{""Q0"":""No""}",implicit,Speaker Aware,8,No,0,6,Speaker Aware,4,0,0,0,NA,8,6,2,7,TRUE,0,low
166,18343,4026,survey-multi-choice,15,809749,group3,5a,"{""Q0"":""Yes""}",explicit,Speaker Unaware,1,Yes,1,7,Speaker Unaware,4,0,0,0,NA,8,6,2,7,TRUE,0,low
167,18343,5851,survey-multi-choice,9,542117,group3,5a,"{""Q0"":""Yes""}",explicit,Speaker Unaware,6,Yes,1,4,Speaker Unaware,4,0,0,0,NA,8,6,2,7,TRUE,0,low
168,18343,4794,survey-multi-choice,19,956373,group3,5a,"{""Q0"":""Yes""}",implicit,Speaker Unaware,14,Yes,1,9,Speaker Unaware,4,0,0,0,NA,8,6,2,7,TRUE,0,low
169,18343,9171,survey-multi-choice,21,1056943,group3,5a,"{""Q0"":""Yes""}",explicit,Speaker Aware,13,Yes,1,10,Speaker Aware,4,0,0,0,NA,8,6,2,7,TRUE,0,low
170,18343,5705,survey-multi-choice,23,1165893,group3,5a,"{""Q0"":""Yes""}",explicit,Speaker Unaware,4,Yes,1,11,Speaker Unaware,4,0,0,0,NA,8,6,2,7,TRUE,0,low
171,18343,3642,survey-multi-choice,17,874901,group3,5a,"{""Q0"":""Yes""}",implicit,Speaker Unaware,10,Yes,1,8,Speaker Unaware,4,0,0,0,NA,8,6,2,7,TRUE,0,low
172,18343,3833,survey-multi-choice,31,1558071,group3,5a,"{""Q0"":""No""}",explicit,Speaker Aware,12,No,0,15,Speaker Aware,4,0,0,0,NA,8,6,2,7,TRUE,0,low
173,18343,13657,survey-multi-choice,3,287782,group3,5a,"{""Q0"":""No""}",explicit,Speaker Unaware,3,No,0,1,Speaker Unaware,4,0,0,0,NA,8,6,2,7,TRUE,0,low
174,18343,4770,survey-multi-choice,29,1439454,group3,5a,"{""Q0"":""Yes""}",implicit,Speaker Unaware,16,Yes,1,14,Speaker Unaware,4,0,0,0,NA,8,6,2,7,TRUE,0,low
175,18343,5656,survey-multi-choice,25,1242933,group3,5a,"{""Q0"":""No""}",implicit,Speaker Aware,7,No,0,12,Speaker Aware,4,0,0,0,NA,8,6,2,7,TRUE,0,low
176,18343,3954,survey-multi-choice,27,1370390,group3,5a,"{""Q0"":""Yes""}",implicit,Speaker Aware,5,Yes,1,13,Speaker Aware,4,0,0,0,NA,8,6,2,7,TRUE,0,low
177,19247,1571,survey-multi-choice,29,411177,group4,5a,"{""Q0"":""Yes""}",explicit,Speaker Aware,14,Yes,1,14,Speaker Aware,4,6,1,1,NA,10,8,5,9,TRUE,1,low
178,19247,1741,survey-multi-choice,19,267226,group4,5a,"{""Q0"":""Yes""}",implicit,Speaker Unaware,12,Yes,1,9,Speaker Unaware,4,6,1,1,NA,10,8,5,9,TRUE,1,low
179,19247,1988,survey-multi-choice,23,311154,group4,5a,"{""Q0"":""Yes""}",implicit,Speaker Aware,1,Yes,1,11,Speaker Aware,4,6,1,1,NA,10,8,5,9,TRUE,1,low
180,19247,1325,survey-multi-choice,33,453745,group4,5a,"{""Q0"":""Yes""}",implicit,Speaker Unaware,15,Yes,1,16,Speaker Unaware,4,6,1,1,NA,10,8,5,9,TRUE,1,low
181,19247,1485,survey-multi-choice,25,363282,group4,5a,"{""Q0"":""Yes""}",explicit,Speaker Aware,10,Yes,1,12,Speaker Aware,4,6,1,1,NA,10,8,5,9,TRUE,1,low
182,19247,1678,survey-multi-choice,27,389122,group4,5a,"{""Q0"":""Yes""}",implicit,Speaker Unaware,9,Yes,1,13,Speaker Unaware,4,6,1,1,NA,10,8,5,9,TRUE,1,low
183,19247,1540,survey-multi-choice,21,286018,group4,5a,"{""Q0"":""No""}",explicit,Speaker Aware,11,No,0,10,Speaker Aware,4,6,1,1,NA,10,8,5,9,TRUE,1,low
184,19247,3457,survey-multi-choice,3,55653,group4,5a,"{""Q0"":""Yes""}",explicit,Speaker Aware,16,Yes,1,1,Speaker Aware,4,6,1,1,NA,10,8,5,9,TRUE,1,low
185,19247,2203,survey-multi-choice,31,427882,group4,5a,"{""Q0"":""Yes""}",explicit,Speaker Unaware,5,Yes,1,15,Speaker Unaware,4,6,1,1,NA,10,8,5,9,TRUE,1,low
186,19247,1986,survey-multi-choice,7,114772,group4,5a,"{""Q0"":""Yes""}",implicit,Speaker Aware,3,Yes,1,3,Speaker Aware,4,6,1,1,NA,10,8,5,9,TRUE,1,low
187,19247,1516,survey-multi-choice,9,139620,group4,5a,"{""Q0"":""No""}",explicit,Speaker Unaware,7,No,0,4,Speaker Unaware,4,6,1,1,NA,10,8,5,9,TRUE,1,low
188,19247,2444,survey-multi-choice,15,231091,group4,5a,"{""Q0"":""Yes""}",implicit,Speaker Aware,4,Yes,1,7,Speaker Aware,4,6,1,1,NA,10,8,5,9,TRUE,1,low
189,19247,1636,survey-multi-choice,17,245331,group4,5a,"{""Q0"":""Yes""}",implicit,Speaker Aware,6,Yes,1,8,Speaker Aware,4,6,1,1,NA,10,8,5,9,TRUE,1,low
190,19247,2292,survey-multi-choice,11,162804,group4,5a,"{""Q0"":""Yes""}",explicit,Speaker Unaware,2,Yes,1,5,Speaker Unaware,4,6,1,1,NA,10,8,5,9,TRUE,1,low
191,19247,2301,survey-multi-choice,5,84181,group4,5a,"{""Q0"":""Yes""}",implicit,Speaker Unaware,13,Yes,1,2,Speaker Unaware,4,6,1,1,NA,10,8,5,9,TRUE,1,low
192,19247,1813,survey-multi-choice,13,203163,group4,5a,"{""Q0"":""Yes""}",explicit,Speaker Unaware,8,Yes,1,6,Speaker Unaware,4,6,1,1,NA,10,8,5,9,TRUE,1,low
193,20407,4476,survey-multi-choice,11,177522,group1,5a,"{""Q0"":""No""}",implicit,Speaker Unaware,3,No,0,5,Speaker Unaware,2,2,0,0,NA,9,7,2,8,TRUE,0,low
194,20407,5322,survey-multi-choice,3,65937,group1,5a,"{""Q0"":""Yes""}",explicit,Speaker Unaware,16,Yes,1,1,Speaker Unaware,2,2,0,0,NA,9,7,2,8,TRUE,0,low
195,20407,5488,survey-multi-choice,7,129027,group1,5a,"{""Q0"":""No""}",explicit,Speaker Aware,7,No,0,3,Speaker Aware,2,2,0,0,NA,9,7,2,8,TRUE,0,low
196,20407,2123,survey-multi-choice,9,153179,group1,5a,"{""Q0"":""Yes""}",implicit,Speaker Aware,13,Yes,1,4,Speaker Aware,2,2,0,0,NA,9,7,2,8,TRUE,0,low
197,20407,7646,survey-multi-choice,5,97939,group1,5a,"{""Q0"":""Yes""}",explicit,Speaker Aware,2,Yes,1,2,Speaker Aware,2,2,0,0,NA,9,7,2,8,TRUE,0,low
198,20407,7772,survey-multi-choice,13,209523,group1,5a,"{""Q0"":""Yes""}",explicit,Speaker Unaware,11,Yes,1,6,Speaker Unaware,2,2,0,0,NA,9,7,2,8,TRUE,0,low
199,20407,4138,survey-multi-choice,17,279026,group1,5a,"{""Q0"":""Yes""}",explicit,Speaker Unaware,14,Yes,1,8,Speaker Unaware,2,2,0,0,NA,9,7,2,8,TRUE,0,low
200,20407,2711,survey-multi-choice,33,511154,group1,5a,"{""Q0"":""Yes""}",explicit,Speaker Aware,5,Yes,1,16,Speaker Aware,2,2,0,0,NA,9,7,2,8,TRUE,0,low
201,20407,2787,survey-multi-choice,19,302901,group1,5a,"{""Q0"":""Yes""}",implicit,Speaker Unaware,1,Yes,1,9,Speaker Unaware,2,2,0,0,NA,9,7,2,8,TRUE,0,low
202,20407,2853,survey-multi-choice,21,327998,group1,5a,"{""Q0"":""Yes""}",implicit,Speaker Unaware,6,Yes,1,10,Speaker Unaware,2,2,0,0,NA,9,7,2,8,TRUE,0,low
203,20407,2074,survey-multi-choice,31,479053,group1,5a,"{""Q0"":""Yes""}",implicit,Speaker Aware,12,Yes,1,15,Speaker Aware,2,2,0,0,NA,9,7,2,8,TRUE,0,low
204,20407,9171,survey-multi-choice,27,424295,group1,5a,"{""Q0"":""Yes""}",explicit,Speaker Unaware,10,Yes,1,13,Speaker Unaware,2,2,0,0,NA,9,7,2,8,TRUE,0,low
205,20407,2142,survey-multi-choice,29,438983,group1,5a,"{""Q0"":""Yes""}",implicit,Speaker Aware,15,Yes,1,14,Speaker Aware,2,2,0,0,NA,9,7,2,8,TRUE,0,low
206,20407,3058,survey-multi-choice,15,247792,group1,5a,"{""Q0"":""No""}",implicit,Speaker Unaware,4,No,0,7,Speaker Unaware,2,2,0,0,NA,9,7,2,8,TRUE,0,low
207,20407,5293,survey-multi-choice,23,362502,group1,5a,"{""Q0"":""No""}",implicit,Speaker Aware,9,No,0,11,Speaker Aware,2,2,0,0,NA,9,7,2,8,TRUE,0,low
208,20407,2572,survey-multi-choice,25,398670,group1,5a,"{""Q0"":""Yes""}",explicit,Speaker Aware,8,Yes,1,12,Speaker Aware,2,2,0,0,NA,9,7,2,8,TRUE,0,low
209,21237,3894,survey-multi-choice,5,88184,group4,5a,"{""Q0"":""No""}",implicit,Speaker Aware,4,No,0,2,Speaker Aware,12,11,0,0,NA,9,9,11.5,9,TRUE,0,low
210,21237,1970,survey-multi-choice,9,139142,group4,5a,"{""Q0"":""Yes""}",explicit,Speaker Aware,16,Yes,1,4,Speaker Aware,12,11,0,0,NA,9,9,11.5,9,TRUE,0,low
211,21237,1862,survey-multi-choice,21,292434,group4,5a,"{""Q0"":""Yes""}",explicit,Speaker Unaware,5,Yes,1,10,Speaker Unaware,12,11,0,0,NA,9,9,11.5,9,TRUE,0,low
212,21237,2531,survey-multi-choice,7,112466,group4,5a,"{""Q0"":""No""}",explicit,Speaker Aware,11,No,0,3,Speaker Aware,12,11,0,0,NA,9,9,11.5,9,TRUE,0,low
213,21237,5253,survey-multi-choice,3,50259,group4,5a,"{""Q0"":""Yes""}",explicit,Speaker Unaware,8,Yes,1,1,Speaker Unaware,12,11,0,0,NA,9,9,11.5,9,TRUE,0,low
214,21237,1702,survey-multi-choice,29,381474,group4,5a,"{""Q0"":""Yes""}",explicit,Speaker Unaware,2,Yes,1,14,Speaker Unaware,12,11,0,0,NA,9,9,11.5,9,TRUE,0,low
215,21237,1546,survey-multi-choice,23,315147,group4,5a,"{""Q0"":""Yes""}",implicit,Speaker Unaware,13,Yes,1,11,Speaker Unaware,12,11,0,0,NA,9,9,11.5,9,TRUE,0,low
216,21237,1554,survey-multi-choice,27,353348,group4,5a,"{""Q0"":""Yes""}",implicit,Speaker Unaware,12,Yes,1,13,Speaker Unaware,12,11,0,0,NA,9,9,11.5,9,TRUE,0,low
217,21237,2088,survey-multi-choice,19,256070,group4,5a,"{""Q0"":""Yes""}",implicit,Speaker Aware,6,Yes,1,9,Speaker Aware,12,11,0,0,NA,9,9,11.5,9,TRUE,0,low
218,21237,2392,survey-multi-choice,17,241201,group4,5a,"{""Q0"":""No""}",implicit,Speaker Aware,1,No,0,8,Speaker Aware,12,11,0,0,NA,9,9,11.5,9,TRUE,0,low
219,21237,1768,survey-multi-choice,11,169278,group4,5a,"{""Q0"":""Yes""}",explicit,Speaker Unaware,7,Yes,1,5,Speaker Unaware,12,11,0,0,NA,9,9,11.5,9,TRUE,0,low
220,21237,1700,survey-multi-choice,25,332808,group4,5a,"{""Q0"":""Yes""}",implicit,Speaker Unaware,15,Yes,1,12,Speaker Unaware,12,11,0,0,NA,9,9,11.5,9,TRUE,0,low
221,21237,1542,survey-multi-choice,33,431186,group4,5a,"{""Q0"":""Yes""}",implicit,Speaker Aware,3,Yes,1,16,Speaker Aware,12,11,0,0,NA,9,9,11.5,9,TRUE,0,low
222,21237,1720,survey-multi-choice,15,217803,group4,5a,"{""Q0"":""No""}",explicit,Speaker Aware,14,No,0,7,Speaker Aware,12,11,0,0,NA,9,9,11.5,9,TRUE,0,low
223,21237,2548,survey-multi-choice,13,190648,group4,5a,"{""Q0"":""Yes""}",implicit,Speaker Unaware,9,Yes,1,6,Speaker Unaware,12,11,0,0,NA,9,9,11.5,9,TRUE,0,low
224,21237,1816,survey-multi-choice,31,407798,group4,5a,"{""Q0"":""Yes""}",explicit,Speaker Aware,10,Yes,1,15,Speaker Aware,12,11,0,0,NA,9,9,11.5,9,TRUE,0,low
225,23011,2706,survey-multi-choice,17,508191,group3,5a,"{""Q0"":""No""}",implicit,Speaker Unaware,16,No,0,8,Speaker Unaware,6,3,0,1,0,9,8,4.5,8.5,FALSE,0,low
226,23011,2690,survey-multi-choice,23,618309,group3,5a,"{""Q0"":""Yes""}",implicit,Speaker Aware,5,Yes,1,11,Speaker Aware,6,3,0,1,0,9,8,4.5,8.5,FALSE,0,low
227,23011,1877,survey-multi-choice,25,639586,group3,5a,"{""Q0"":""No""}",implicit,Speaker Unaware,11,No,0,12,Speaker Unaware,6,3,0,1,0,9,8,4.5,8.5,FALSE,0,low
228,23011,4606,survey-multi-choice,5,124565,group3,5a,"{""Q0"":""No""}",explicit,Speaker Unaware,1,No,0,2,Speaker Unaware,6,3,0,1,0,9,8,4.5,8.5,FALSE,0,low
229,23011,8292,survey-multi-choice,21,573931,group3,5a,"{""Q0"":""Yes""}",explicit,Speaker Unaware,6,Yes,1,10,Speaker Unaware,6,3,0,1,0,9,8,4.5,8.5,FALSE,0,low
230,23011,1838,survey-multi-choice,15,303907,group3,5a,"{""Q0"":""No""}",explicit,Speaker Aware,12,No,0,7,Speaker Aware,6,3,0,1,0,9,8,4.5,8.5,FALSE,0,low
231,23011,2199,survey-multi-choice,13,268720,group3,5a,"{""Q0"":""Yes""}",implicit,Speaker Aware,2,Yes,1,6,Speaker Aware,6,3,0,1,0,9,8,4.5,8.5,FALSE,0,low
232,23011,3283,survey-multi-choice,19,546747,group3,5a,"{""Q0"":""No""}",explicit,Speaker Unaware,4,No,0,9,Speaker Unaware,6,3,0,1,0,9,8,4.5,8.5,FALSE,0,low
233,23011,4933,survey-multi-choice,3,79269,group3,5a,"{""Q0"":""Yes""}",implicit,Speaker Unaware,14,Yes,1,1,Speaker Unaware,6,3,0,1,0,9,8,4.5,8.5,FALSE,0,low
234,23011,1892,survey-multi-choice,29,693291,group3,5a,"{""Q0"":""No""}",explicit,Speaker Aware,13,No,0,14,Speaker Aware,6,3,0,1,0,9,8,4.5,8.5,FALSE,0,low
235,23011,1865,survey-multi-choice,11,230103,group3,5a,"{""Q0"":""No""}",implicit,Speaker Aware,8,No,0,5,Speaker Aware,6,3,0,1,0,9,8,4.5,8.5,FALSE,0,low
236,23011,1924,survey-multi-choice,33,763921,group3,5a,"{""Q0"":""No""}",explicit,Speaker Aware,9,No,0,16,Speaker Aware,6,3,0,1,0,9,8,4.5,8.5,FALSE,0,low
237,23011,2113,survey-multi-choice,27,666797,group3,5a,"{""Q0"":""No""}",explicit,Speaker Aware,15,No,0,13,Speaker Aware,6,3,0,1,0,9,8,4.5,8.5,FALSE,0,low
238,23011,2856,survey-multi-choice,9,196254,group3,5a,"{""Q0"":""Yes""}",implicit,Speaker Unaware,10,Yes,1,4,Speaker Unaware,6,3,0,1,0,9,8,4.5,8.5,FALSE,0,low
239,23011,2136,survey-multi-choice,31,728464,group3,5a,"{""Q0"":""No""}",implicit,Speaker Aware,7,No,0,15,Speaker Aware,6,3,0,1,0,9,8,4.5,8.5,FALSE,0,low
240,23011,6698,survey-multi-choice,7,166943,group3,5a,"{""Q0"":""Yes""}",explicit,Speaker Unaware,3,Yes,1,3,Speaker Unaware,6,3,0,1,0,9,8,4.5,8.5,FALSE,0,low
241,27612,1478,survey-multi-choice,7,85350,group2,5a,"{""Q0"":""Yes""}",explicit,Speaker Unaware,9,Yes,1,3,Speaker Unaware,7,9,0,0,NA,10,10,8,10,TRUE,0,high
242,27612,1221,survey-multi-choice,13,134693,group2,5a,"{""Q0"":""Yes""}",implicit,Speaker Aware,16,Yes,1,6,Speaker Aware,7,9,0,0,NA,10,10,8,10,TRUE,0,high
243,27612,1174,survey-multi-choice,15,156669,group2,5a,"{""Q0"":""Yes""}",implicit,Speaker Aware,10,Yes,1,7,Speaker Aware,7,9,0,0,NA,10,10,8,10,TRUE,0,high
244,27612,1754,survey-multi-choice,5,59199,group2,5a,"{""Q0"":""No""}",explicit,Speaker Aware,6,No,0,2,Speaker Aware,7,9,0,0,NA,10,10,8,10,TRUE,0,high
245,27612,1484,survey-multi-choice,9,107374,group2,5a,"{""Q0"":""No""}",explicit,Speaker Aware,4,No,0,4,Speaker Aware,7,9,0,0,NA,10,10,8,10,TRUE,0,high
246,27612,1460,survey-multi-choice,11,119893,group2,5a,"{""Q0"":""Yes""}",explicit,Speaker Aware,1,Yes,1,5,Speaker Aware,7,9,0,0,NA,10,10,8,10,TRUE,0,high
247,27612,1254,survey-multi-choice,33,273931,group2,5a,"{""Q0"":""No""}",explicit,Speaker Unaware,13,No,0,16,Speaker Unaware,7,9,0,0,NA,10,10,8,10,TRUE,0,high
248,27612,1606,survey-multi-choice,19,206332,group2,5a,"{""Q0"":""No""}",explicit,Speaker Aware,3,No,0,9,Speaker Aware,7,9,0,0,NA,10,10,8,10,TRUE,0,high
249,27612,926,survey-multi-choice,31,269162,group2,5a,"{""Q0"":""No""}",implicit,Speaker Unaware,2,No,0,15,Speaker Unaware,7,9,0,0,NA,10,10,8,10,TRUE,0,high
250,27612,1502,survey-multi-choice,21,232595,group2,5a,"{""Q0"":""Yes""}",implicit,Speaker Unaware,5,Yes,1,10,Speaker Unaware,7,9,0,0,NA,10,10,8,10,TRUE,0,high
251,27612,2837,survey-multi-choice,17,193515,group2,5a,"{""Q0"":""Yes""}",implicit,Speaker Aware,14,Yes,1,8,Speaker Aware,7,9,0,0,NA,10,10,8,10,TRUE,0,high
252,27612,2639,survey-multi-choice,3,46256,group2,5a,"{""Q0"":""No""}",implicit,Speaker Aware,11,No,0,1,Speaker Aware,7,9,0,0,NA,10,10,8,10,TRUE,0,high
253,27612,1197,survey-multi-choice,29,263907,group2,5a,"{""Q0"":""No""}",implicit,Speaker Unaware,8,No,0,14,Speaker Unaware,7,9,0,0,NA,10,10,8,10,TRUE,0,high
254,27612,974,survey-multi-choice,27,259426,group2,5a,"{""Q0"":""Yes""}",explicit,Speaker Unaware,15,Yes,1,13,Speaker Unaware,7,9,0,0,NA,10,10,8,10,TRUE,0,high
255,27612,1395,survey-multi-choice,23,245779,group2,5a,"{""Q0"":""Yes""}",explicit,Speaker Unaware,12,Yes,1,11,Speaker Unaware,7,9,0,0,NA,10,10,8,10,TRUE,0,high
256,27612,4555,survey-multi-choice,25,254467,group2,5a,"{""Q0"":""Yes""}",implicit,Speaker Unaware,7,Yes,1,12,Speaker Unaware,7,9,0,0,NA,10,10,8,10,TRUE,0,high
257,27872,2636,survey-multi-choice,13,225037,group3,5a,"{""Q0"":""Yes""}",implicit,Speaker Aware,2,Yes,1,6,Speaker Aware,7,10,0,0,NA,10,10,8.5,10,TRUE,0,high
258,27872,2501,survey-multi-choice,7,144686,group3,5a,"{""Q0"":""Yes""}",implicit,Speaker Unaware,16,Yes,1,3,Speaker Unaware,7,10,0,0,NA,10,10,8.5,10,TRUE,0,high
259,27872,3694,survey-multi-choice,9,163719,group3,5a,"{""Q0"":""Yes""}",explicit,Speaker Unaware,6,Yes,1,4,Speaker Unaware,7,10,0,0,NA,10,10,8.5,10,TRUE,0,high
260,27872,1799,survey-multi-choice,15,251007,group3,5a,"{""Q0"":""No""}",explicit,Speaker Aware,12,No,0,7,Speaker Aware,7,10,0,0,NA,10,10,8.5,10,TRUE,0,high
261,27872,4638,survey-multi-choice,5,119920,group3,5a,"{""Q0"":""No""}",implicit,Speaker Aware,5,No,0,2,Speaker Aware,7,10,0,0,NA,10,10,8.5,10,TRUE,0,high
262,27872,2248,survey-multi-choice,27,483973,group3,5a,"{""Q0"":""Yes""}",implicit,Speaker Aware,8,Yes,1,13,Speaker Aware,7,10,0,0,NA,10,10,8.5,10,TRUE,0,high
263,27872,2440,survey-multi-choice,29,515141,group3,5a,"{""Q0"":""No""}",explicit,Speaker Unaware,3,No,0,14,Speaker Unaware,7,10,0,0,NA,10,10,8.5,10,TRUE,0,high
264,27872,3874,survey-multi-choice,11,192783,group3,5a,"{""Q0"":""No""}",explicit,Speaker Aware,9,No,0,5,Speaker Aware,7,10,0,0,NA,10,10,8.5,10,TRUE,0,high
265,27872,3035,survey-multi-choice,33,570091,group3,5a,"{""Q0"":""Yes""}",implicit,Speaker Unaware,14,Yes,1,16,Speaker Unaware,7,10,0,0,NA,10,10,8.5,10,TRUE,0,high
266,27872,5946,survey-multi-choice,3,73840,group3,5a,"{""Q0"":""No""}",implicit,Speaker Aware,7,No,0,1,Speaker Aware,7,10,0,0,NA,10,10,8.5,10,TRUE,0,high
267,27872,2630,survey-multi-choice,17,278959,group3,5a,"{""Q0"":""No""}",explicit,Speaker Aware,15,No,0,8,Speaker Aware,7,10,0,0,NA,10,10,8.5,10,TRUE,0,high
268,27872,2349,survey-multi-choice,31,533794,group3,5a,"{""Q0"":""Yes""}",implicit,Speaker Unaware,11,Yes,1,15,Speaker Unaware,7,10,0,0,NA,10,10,8.5,10,TRUE,0,high
269,27872,2358,survey-multi-choice,19,322511,group3,5a,"{""Q0"":""No""}",explicit,Speaker Unaware,1,No,0,9,Speaker Unaware,7,10,0,0,NA,10,10,8.5,10,TRUE,0,high
270,27872,2239,survey-multi-choice,21,370611,group3,5a,"{""Q0"":""No""}",explicit,Speaker Aware,13,No,0,10,Speaker Aware,7,10,0,0,NA,10,10,8.5,10,TRUE,0,high
271,27872,2118,survey-multi-choice,25,425692,group3,5a,"{""Q0"":""Yes""}",explicit,Speaker Unaware,4,Yes,1,12,Speaker Unaware,7,10,0,0,NA,10,10,8.5,10,TRUE,0,high
272,27872,2365,survey-multi-choice,23,392988,group3,5a,"{""Q0"":""Yes""}",implicit,Speaker Unaware,10,Yes,1,11,Speaker Unaware,7,10,0,0,NA,10,10,8.5,10,TRUE,0,high
273,28436,5720,survey-multi-choice,5,80823,group1,5a,"{""Q0"":""No""}",implicit,Speaker Unaware,3,No,0,2,Speaker Unaware,13,11,0,0,NA,10,9,12,9.5,TRUE,0,high
274,28436,4247,survey-multi-choice,3,49233,group1,5a,"{""Q0"":""Yes""}",implicit,Speaker Unaware,4,Yes,1,1,Speaker Unaware,13,11,0,0,NA,10,9,12,9.5,TRUE,0,high
275,28436,1388,survey-multi-choice,13,179670,group1,5a,"{""Q0"":""No""}",explicit,Speaker Aware,7,No,0,6,Speaker Aware,13,11,0,0,NA,10,9,12,9.5,TRUE,0,high
276,28436,2092,survey-multi-choice,7,108855,group1,5a,"{""Q0"":""Yes""}",explicit,Speaker Unaware,14,Yes,1,3,Speaker Unaware,13,11,0,0,NA,10,9,12,9.5,TRUE,0,high
277,28436,2165,survey-multi-choice,9,140103,group1,5a,"{""Q0"":""Yes""}",implicit,Speaker Aware,13,Yes,1,4,Speaker Aware,13,11,0,0,NA,10,9,12,9.5,TRUE,0,high
278,28436,1419,survey-multi-choice,11,159065,group1,5a,"{""Q0"":""Yes""}",explicit,Speaker Unaware,10,Yes,1,5,Speaker Unaware,13,11,0,0,NA,10,9,12,9.5,TRUE,0,high
279,28436,1604,survey-multi-choice,21,263118,group1,5a,"{""Q0"":""Yes""}",explicit,Speaker Unaware,16,Yes,1,10,Speaker Unaware,13,11,0,0,NA,10,9,12,9.5,TRUE,0,high
280,28436,2416,survey-multi-choice,15,196848,group1,5a,"{""Q0"":""Yes""}",explicit,Speaker Unaware,11,Yes,1,7,Speaker Unaware,13,11,0,0,NA,10,9,12,9.5,TRUE,0,high
281,28436,1586,survey-multi-choice,17,220233,group1,5a,"{""Q0"":""No""}",explicit,Speaker Aware,2,No,0,8,Speaker Aware,13,11,0,0,NA,10,9,12,9.5,TRUE,0,high
282,28436,1384,survey-multi-choice,19,244511,group1,5a,"{""Q0"":""Yes""}",explicit,Speaker Aware,5,Yes,1,9,Speaker Aware,13,11,0,0,NA,10,9,12,9.5,TRUE,0,high
283,28436,1311,survey-multi-choice,29,341424,group1,5a,"{""Q0"":""No""}",implicit,Speaker Aware,12,No,0,14,Speaker Aware,13,11,0,0,NA,10,9,12,9.5,TRUE,0,high
284,28436,1725,survey-multi-choice,31,359215,group1,5a,"{""Q0"":""No""}",implicit,Speaker Aware,9,No,0,15,Speaker Aware,13,11,0,0,NA,10,9,12,9.5,TRUE,0,high
285,28436,3584,survey-multi-choice,33,384870,group1,5a,"{""Q0"":""Yes""}",explicit,Speaker Aware,8,Yes,1,16,Speaker Aware,13,11,0,0,NA,10,9,12,9.5,TRUE,0,high
286,28436,1667,survey-multi-choice,25,304919,group1,5a,"{""Q0"":""Yes""}",implicit,Speaker Unaware,1,Yes,1,12,Speaker Unaware,13,11,0,0,NA,10,9,12,9.5,TRUE,0,high
287,28436,1279,survey-multi-choice,27,322363,group1,5a,"{""Q0"":""Yes""}",implicit,Speaker Aware,15,Yes,1,13,Speaker Aware,13,11,0,0,NA,10,9,12,9.5,TRUE,0,high
288,28436,1671,survey-multi-choice,23,279165,group1,5a,"{""Q0"":""Yes""}",implicit,Speaker Unaware,6,Yes,1,11,Speaker Unaware,13,11,0,0,NA,10,9,12,9.5,TRUE,0,high
289,29622,6023,survey-multi-choice,7,213357,group4,5a,"{""Q0"":""Yes""}",explicit,Speaker Aware,10,Yes,1,3,Speaker Aware,12,11,0,0,NA,10,10,11.5,10,TRUE,0,high
290,29622,6276,survey-multi-choice,3,102815,group4,5a,"{""Q0"":""No""}",implicit,Speaker Aware,4,No,0,1,Speaker Aware,12,11,0,0,NA,10,10,11.5,10,TRUE,0,high
291,29622,5758,survey-multi-choice,5,155158,group4,5a,"{""Q0"":""Yes""}",explicit,Speaker Unaware,7,Yes,1,2,Speaker Unaware,12,11,0,0,NA,10,10,11.5,10,TRUE,0,high
292,29622,3496,survey-multi-choice,15,431076,group4,5a,"{""Q0"":""No""}",explicit,Speaker Aware,11,No,0,7,Speaker Aware,12,11,0,0,NA,10,10,11.5,10,TRUE,0,high
293,29622,3822,survey-multi-choice,9,293551,group4,5a,"{""Q0"":""Yes""}",explicit,Speaker Unaware,5,Yes,1,4,Speaker Unaware,12,11,0,0,NA,10,10,11.5,10,TRUE,0,high
294,29622,4013,survey-multi-choice,21,543072,group4,5a,"{""Q0"":""Yes""}",implicit,Speaker Unaware,13,Yes,1,10,Speaker Unaware,12,11,0,0,NA,10,10,11.5,10,TRUE,0,high
295,29622,2064,survey-multi-choice,23,563173,group4,5a,"{""Q0"":""No""}",implicit,Speaker Aware,6,No,0,11,Speaker Aware,12,11,0,0,NA,10,10,11.5,10,TRUE,0,high
296,29622,3427,survey-multi-choice,27,636550,group4,5a,"{""Q0"":""No""}",implicit,Speaker Unaware,15,No,0,13,Speaker Unaware,12,11,0,0,NA,10,10,11.5,10,TRUE,0,high
297,29622,2562,survey-multi-choice,17,459243,group4,5a,"{""Q0"":""No""}",implicit,Speaker Aware,1,No,0,8,Speaker Aware,12,11,0,0,NA,10,10,11.5,10,TRUE,0,high
298,29622,2324,survey-multi-choice,19,502646,group4,5a,"{""Q0"":""Yes""}",implicit,Speaker Unaware,12,Yes,1,9,Speaker Unaware,12,11,0,0,NA,10,10,11.5,10,TRUE,0,high
299,29622,3298,survey-multi-choice,13,386439,group4,5a,"{""Q0"":""Yes""}",explicit,Speaker Unaware,8,Yes,1,6,Speaker Unaware,12,11,0,0,NA,10,10,11.5,10,TRUE,0,high
300,29622,3874,survey-multi-choice,11,333783,group4,5a,"{""Q0"":""No""}",explicit,Speaker Aware,14,No,0,5,Speaker Aware,12,11,0,0,NA,10,10,11.5,10,TRUE,0,high
301,29622,1863,survey-multi-choice,25,592070,group4,5a,"{""Q0"":""No""}",explicit,Speaker Aware,16,No,0,12,Speaker Aware,12,11,0,0,NA,10,10,11.5,10,TRUE,0,high
302,29622,2246,survey-multi-choice,31,699786,group4,5a,"{""Q0"":""Yes""}",implicit,Speaker Unaware,9,Yes,1,15,Speaker Unaware,12,11,0,0,NA,10,10,11.5,10,TRUE,0,high
303,29622,2421,survey-multi-choice,33,739451,group4,5a,"{""Q0"":""Yes""}",explicit,Speaker Unaware,2,Yes,1,16,Speaker Unaware,12,11,0,0,NA,10,10,11.5,10,TRUE,0,high
304,29622,6447,survey-multi-choice,29,668925,group4,5a,"{""Q0"":""No""}",implicit,Speaker Aware,3,No,0,14,Speaker Aware,12,11,0,0,NA,10,10,11.5,10,TRUE,0,high
305,30574,7460,survey-multi-choice,7,217299,group4,5a,"{""Q0"":""Yes""}",implicit,Speaker Unaware,13,Yes,1,3,Speaker Unaware,10,10,0,1,0,10,10,10,10,FALSE,0,high
306,30574,15159,survey-multi-choice,3,106104,group4,5a,"{""Q0"":""Yes""}",implicit,Speaker Aware,4,Yes,1,1,Speaker Aware,10,10,0,1,0,10,10,10,10,FALSE,0,high
307,30574,16401,survey-multi-choice,5,171344,group4,5a,"{""Q0"":""No""}",explicit,Speaker Aware,16,No,0,2,Speaker Aware,10,10,0,1,0,10,10,10,10,FALSE,0,high
308,30574,3481,survey-multi-choice,15,418156,group4,5a,"{""Q0"":""No""}",explicit,Speaker Unaware,7,No,0,7,Speaker Unaware,10,10,0,1,0,10,10,10,10,FALSE,0,high
309,30574,8993,survey-multi-choice,9,256419,group4,5a,"{""Q0"":""No""}",implicit,Speaker Unaware,9,No,0,4,Speaker Unaware,10,10,0,1,0,10,10,10,10,FALSE,0,high
310,30574,22275,survey-multi-choice,11,362921,group4,5a,"{""Q0"":""Yes""}",implicit,Speaker Aware,3,Yes,1,5,Speaker Aware,10,10,0,1,0,10,10,10,10,FALSE,0,high
311,30574,1844,survey-multi-choice,13,382428,group4,5a,"{""Q0"":""Yes""}",implicit,Speaker Aware,6,Yes,1,6,Speaker Aware,10,10,0,1,0,10,10,10,10,FALSE,0,high
312,30574,1429,survey-multi-choice,21,508394,group4,5a,"{""Q0"":""Yes""}",explicit,Speaker Aware,10,Yes,1,10,Speaker Aware,10,10,0,1,0,10,10,10,10,FALSE,0,high
313,30574,2290,survey-multi-choice,23,561905,group4,5a,"{""Q0"":""No""}",explicit,Speaker Unaware,5,No,0,11,Speaker Unaware,10,10,0,1,0,10,10,10,10,FALSE,0,high
314,30574,44532,survey-multi-choice,25,644914,group4,5a,"{""Q0"":""Yes""}",implicit,Speaker Unaware,12,Yes,1,12,Speaker Unaware,10,10,0,1,0,10,10,10,10,FALSE,0,high
315,30574,2558,survey-multi-choice,27,695491,group4,5a,"{""Q0"":""No""}",explicit,Speaker Unaware,8,No,0,13,Speaker Unaware,10,10,0,1,0,10,10,10,10,FALSE,0,high
316,30574,1440,survey-multi-choice,29,732665,group4,5a,"{""Q0"":""Yes""}",explicit,Speaker Unaware,2,Yes,1,14,Speaker Unaware,10,10,0,1,0,10,10,10,10,FALSE,0,high
317,30574,1526,survey-multi-choice,31,766201,group4,5a,"{""Q0"":""No""}",explicit,Speaker Aware,14,No,0,15,Speaker Aware,10,10,0,1,0,10,10,10,10,FALSE,0,high
318,30574,1720,survey-multi-choice,33,791983,group4,5a,"{""Q0"":""Yes""}",explicit,Speaker Aware,11,Yes,1,16,Speaker Aware,10,10,0,1,0,10,10,10,10,FALSE,0,high
319,30574,2243,survey-multi-choice,17,450060,group4,5a,"{""Q0"":""Yes""}",implicit,Speaker Unaware,15,Yes,1,8,Speaker Unaware,10,10,0,1,0,10,10,10,10,FALSE,0,high
320,30574,1805,survey-multi-choice,19,477785,group4,5a,"{""Q0"":""No""}",implicit,Speaker Aware,1,No,0,9,Speaker Aware,10,10,0,1,0,10,10,10,10,FALSE,0,high
321,32651,1904,survey-multi-choice,33,514075,group2,5a,"{""Q0"":""Yes""}",explicit,Speaker Unaware,9,Yes,1,16,Speaker Unaware,11,13,0,1,1,10,9,12,9.5,FALSE,1,high
322,32651,1499,survey-multi-choice,21,262525,group2,5a,"{""Q0"":""No""}",implicit,Speaker Aware,16,No,0,10,Speaker Aware,11,13,0,1,1,10,9,12,9.5,FALSE,1,high
323,32651,1912,survey-multi-choice,29,472354,group2,5a,"{""Q0"":""Yes""}",explicit,Speaker Unaware,12,Yes,1,14,Speaker Unaware,11,13,0,1,1,10,9,12,9.5,FALSE,1,high
324,32651,1636,survey-multi-choice,31,491022,group2,5a,"{""Q0"":""No""}",implicit,Speaker Aware,11,No,0,15,Speaker Aware,11,13,0,1,1,10,9,12,9.5,FALSE,1,high
325,32651,1779,survey-multi-choice,17,217071,group2,5a,"{""Q0"":""No""}",implicit,Speaker Unaware,7,No,0,8,Speaker Unaware,11,13,0,1,1,10,9,12,9.5,FALSE,1,high
326,32651,1447,survey-multi-choice,23,292816,group2,5a,"{""Q0"":""No""}",explicit,Speaker Aware,3,No,0,11,Speaker Aware,11,13,0,1,1,10,9,12,9.5,FALSE,1,high
327,32651,2403,survey-multi-choice,25,316397,group2,5a,"{""Q0"":""No""}",explicit,Speaker Aware,4,No,0,12,Speaker Aware,11,13,0,1,1,10,9,12,9.5,FALSE,1,high
328,32651,1862,survey-multi-choice,19,239215,group2,5a,"{""Q0"":""Yes""}",implicit,Speaker Aware,10,Yes,1,9,Speaker Aware,11,13,0,1,1,10,9,12,9.5,FALSE,1,high
329,32651,1762,survey-multi-choice,9,131430,group2,5a,"{""Q0"":""Yes""}",implicit,Speaker Unaware,2,Yes,1,4,Speaker Unaware,11,13,0,1,1,10,9,12,9.5,FALSE,1,high
330,32651,1684,survey-multi-choice,15,192398,group2,5a,"{""Q0"":""Yes""}",explicit,Speaker Unaware,15,Yes,1,7,Speaker Unaware,11,13,0,1,1,10,9,12,9.5,FALSE,1,high
331,32651,3888,survey-multi-choice,13,172378,group2,5a,"{""Q0"":""Yes""}",explicit,Speaker Aware,6,Yes,1,6,Speaker Aware,11,13,0,1,1,10,9,12,9.5,FALSE,1,high
332,32651,2233,survey-multi-choice,27,349795,group2,5a,"{""Q0"":""No""}",implicit,Speaker Unaware,5,No,0,13,Speaker Unaware,11,13,0,1,1,10,9,12,9.5,FALSE,1,high
333,32651,1937,survey-multi-choice,11,154514,group2,5a,"{""Q0"":""Yes""}",explicit,Speaker Unaware,13,Yes,1,5,Speaker Unaware,11,13,0,1,1,10,9,12,9.5,FALSE,1,high
334,32651,6378,survey-multi-choice,5,86418,group2,5a,"{""Q0"":""Yes""}",implicit,Speaker Unaware,8,Yes,1,2,Speaker Unaware,11,13,0,1,1,10,9,12,9.5,FALSE,1,high
335,32651,1871,survey-multi-choice,7,107841,group2,5a,"{""Q0"":""No""}",explicit,Speaker Aware,1,No,0,3,Speaker Aware,11,13,0,1,1,10,9,12,9.5,FALSE,1,high
336,32651,4235,survey-multi-choice,3,50468,group2,5a,"{""Q0"":""No""}",implicit,Speaker Aware,14,No,0,1,Speaker Aware,11,13,0,1,1,10,9,12,9.5,FALSE,1,high
337,32946,2970,survey-multi-choice,23,967311,group4,5a,"{""Q0"":""Yes""}",implicit,Speaker Unaware,12,Yes,1,11,Speaker Unaware,11,11,0,0,NA,10,8,11,9,TRUE,0,low
338,32946,4153,survey-multi-choice,21,889846,group4,5a,"{""Q0"":""Yes""}",explicit,Speaker Aware,14,Yes,1,10,Speaker Aware,11,11,0,0,NA,10,8,11,9,TRUE,0,low
339,32946,6634,survey-multi-choice,3,186007,group4,5a,"{""Q0"":""No""}",explicit,Speaker Unaware,7,No,0,1,Speaker Unaware,11,11,0,0,NA,10,8,11,9,TRUE,0,low
340,32946,13422,survey-multi-choice,19,850291,group4,5a,"{""Q0"":""No""}",explicit,Speaker Unaware,2,No,0,9,Speaker Unaware,11,11,0,0,NA,10,8,11,9,TRUE,0,low
341,32946,1858,survey-multi-choice,29,1107286,group4,5a,"{""Q0"":""Yes""}",implicit,Speaker Unaware,9,Yes,1,14,Speaker Unaware,11,11,0,0,NA,10,8,11,9,TRUE,0,low
342,32946,3268,survey-multi-choice,25,1004690,group4,5a,"{""Q0"":""No""}",explicit,Speaker Aware,11,No,0,12,Speaker Aware,11,11,0,0,NA,10,8,11,9,TRUE,0,low
343,32946,3003,survey-multi-choice,17,766637,group4,5a,"{""Q0"":""Yes""}",implicit,Speaker Unaware,15,Yes,1,8,Speaker Unaware,11,11,0,0,NA,10,8,11,9,TRUE,0,low
344,32946,2219,survey-multi-choice,27,1038920,group4,5a,"{""Q0"":""Yes""}",explicit,Speaker Unaware,8,Yes,1,13,Speaker Unaware,11,11,0,0,NA,10,8,11,9,TRUE,0,low
345,32946,2765,survey-multi-choice,9,420251,group4,5a,"{""Q0"":""Yes""}",explicit,Speaker Aware,10,Yes,1,4,Speaker Aware,11,11,0,0,NA,10,8,11,9,TRUE,0,low
346,32946,2197,survey-multi-choice,31,1130415,group4,5a,"{""Q0"":""Yes""}",implicit,Speaker Aware,6,Yes,1,15,Speaker Aware,11,11,0,0,NA,10,8,11,9,TRUE,0,low
347,32946,4853,survey-multi-choice,5,254560,group4,5a,"{""Q0"":""Yes""}",explicit,Speaker Aware,16,Yes,1,2,Speaker Aware,11,11,0,0,NA,10,8,11,9,TRUE,0,low
348,32946,3884,survey-multi-choice,7,374718,group4,5a,"{""Q0"":""Yes""}",implicit,Speaker Aware,3,Yes,1,3,Speaker Aware,11,11,0,0,NA,10,8,11,9,TRUE,0,low
349,32946,5639,survey-multi-choice,15,740280,group4,5a,"{""Q0"":""No""}",explicit,Speaker Unaware,5,No,0,7,Speaker Unaware,11,11,0,0,NA,10,8,11,9,TRUE,0,low
350,32946,2405,survey-multi-choice,11,469348,group4,5a,"{""Q0"":""Yes""}",implicit,Speaker Aware,4,Yes,1,5,Speaker Aware,11,11,0,0,NA,10,8,11,9,TRUE,0,low
351,32946,7172,survey-multi-choice,13,498997,group4,5a,"{""Q0"":""No""}",implicit,Speaker Unaware,13,No,0,6,Speaker Unaware,11,11,0,0,NA,10,8,11,9,TRUE,0,low
352,32946,3069,survey-multi-choice,33,1167567,group4,5a,"{""Q0"":""No""}",implicit,Speaker Aware,1,No,0,16,Speaker Aware,11,11,0,0,NA,10,8,11,9,TRUE,0,low
353,33096,2347,survey-multi-choice,11,846496,group2,5a,"{""Q0"":""No""}",explicit,Speaker Unaware,9,No,0,5,Speaker Unaware,3,3,0,0,NA,10,9,3,9.5,TRUE,0,high
354,33096,2355,survey-multi-choice,9,838669,group2,5a,"{""Q0"":""No""}",implicit,Speaker Unaware,2,No,0,4,Speaker Unaware,3,3,0,0,NA,10,9,3,9.5,TRUE,0,high
355,33096,4554,survey-multi-choice,13,854812,group2,5a,"{""Q0"":""No""}",implicit,Speaker Unaware,7,No,0,6,Speaker Unaware,3,3,0,0,NA,10,9,3,9.5,TRUE,0,high
356,33096,3185,survey-multi-choice,33,984537,group2,5a,"{""Q0"":""Yes""}",explicit,Speaker Unaware,15,Yes,1,16,Speaker Unaware,3,3,0,0,NA,10,9,3,9.5,TRUE,0,high
357,33096,3053,survey-multi-choice,7,831116,group2,5a,"{""Q0"":""Yes""}",implicit,Speaker Aware,11,Yes,1,3,Speaker Aware,3,3,0,0,NA,10,9,3,9.5,TRUE,0,high
358,33096,1904,survey-multi-choice,31,977737,group2,5a,"{""Q0"":""No""}",explicit,Speaker Aware,4,No,0,15,Speaker Aware,3,3,0,0,NA,10,9,3,9.5,TRUE,0,high
359,33096,1336,survey-multi-choice,19,880598,group2,5a,"{""Q0"":""Yes""}",implicit,Speaker Aware,10,Yes,1,9,Speaker Aware,3,3,0,0,NA,10,9,3,9.5,TRUE,0,high
360,33096,6838,survey-multi-choice,15,869516,group2,5a,"{""Q0"":""No""}",implicit,Speaker Unaware,5,No,0,7,Speaker Unaware,3,3,0,0,NA,10,9,3,9.5,TRUE,0,high
361,33096,1674,survey-multi-choice,5,160947,group2,5a,"{""Q0"":""Yes""}",implicit,Speaker Aware,16,Yes,1,2,Speaker Aware,3,3,0,0,NA,10,9,3,9.5,TRUE,0,high
362,33096,4227,survey-multi-choice,29,971216,group2,5a,"{""Q0"":""Yes""}",explicit,Speaker Unaware,12,Yes,1,14,Speaker Unaware,3,3,0,0,NA,10,9,3,9.5,TRUE,0,high
363,33096,3324,survey-multi-choice,27,963315,group2,5a,"{""Q0"":""Yes""}",explicit,Speaker Aware,1,Yes,1,13,Speaker Aware,3,3,0,0,NA,10,9,3,9.5,TRUE,0,high
364,33096,1834,survey-multi-choice,21,885943,group2,5a,"{""Q0"":""Yes""}",implicit,Speaker Aware,14,Yes,1,10,Speaker Aware,3,3,0,0,NA,10,9,3,9.5,TRUE,0,high
365,33096,1360,survey-multi-choice,17,876202,group2,5a,"{""Q0"":""No""}",implicit,Speaker Unaware,8,No,0,8,Speaker Unaware,3,3,0,0,NA,10,9,3,9.5,TRUE,0,high
366,33096,8089,survey-multi-choice,3,144675,group2,5a,"{""Q0"":""Yes""}",explicit,Speaker Aware,6,Yes,1,1,Speaker Aware,3,3,0,0,NA,10,9,3,9.5,TRUE,0,high
367,33096,3996,survey-multi-choice,25,945938,group2,5a,"{""Q0"":""Yes""}",explicit,Speaker Aware,3,Yes,1,12,Speaker Aware,3,3,0,0,NA,10,9,3,9.5,TRUE,0,high
368,33096,3152,survey-multi-choice,23,892068,group2,5a,"{""Q0"":""No""}",explicit,Speaker Unaware,13,No,0,11,Speaker Unaware,3,3,0,0,NA,10,9,3,9.5,TRUE,0,high
369,39458,2250,survey-multi-choice,15,168872,group2,5a,"{""Q0"":""No""}",implicit,Speaker Aware,14,No,0,7,Speaker Aware,10,11,0,0,NA,10,9,10.5,9.5,TRUE,0,high
370,39458,1699,survey-multi-choice,17,186879,group2,5a,"{""Q0"":""Yes""}",explicit,Speaker Unaware,13,Yes,1,8,Speaker Unaware,10,11,0,0,NA,10,9,10.5,9.5,TRUE,0,high
371,39458,2162,survey-multi-choice,13,144040,group2,5a,"{""Q0"":""No""}",explicit,Speaker Aware,1,No,0,6,Speaker Aware,10,11,0,0,NA,10,9,10.5,9.5,TRUE,0,high
372,39458,2054,survey-multi-choice,9,97441,group2,5a,"{""Q0"":""Yes""}",explicit,Speaker Unaware,15,Yes,1,4,Speaker Unaware,10,11,0,0,NA,10,9,10.5,9.5,TRUE,0,high
373,39458,1836,survey-multi-choice,11,125400,group2,5a,"{""Q0"":""Yes""}",explicit,Speaker Unaware,12,Yes,1,5,Speaker Unaware,10,11,0,0,NA,10,9,10.5,9.5,TRUE,0,high
374,39458,3491,survey-multi-choice,19,209327,group2,5a,"{""Q0"":""No""}",implicit,Speaker Aware,16,No,0,9,Speaker Aware,10,11,0,0,NA,10,9,10.5,9.5,TRUE,0,high
375,39458,3202,survey-multi-choice,7,80001,group2,5a,"{""Q0"":""No""}",explicit,Speaker Aware,3,No,0,3,Speaker Aware,10,11,0,0,NA,10,9,10.5,9.5,TRUE,0,high
376,39458,3139,survey-multi-choice,33,373301,group2,5a,"{""Q0"":""No""}",explicit,Speaker Aware,4,No,0,16,Speaker Aware,10,11,0,0,NA,10,9,10.5,9.5,TRUE,0,high
377,39458,4353,survey-multi-choice,25,288767,group2,5a,"{""Q0"":""Yes""}",implicit,Speaker Aware,10,Yes,1,12,Speaker Aware,10,11,0,0,NA,10,9,10.5,9.5,TRUE,0,high
378,39458,1916,survey-multi-choice,21,233695,group2,5a,"{""Q0"":""Yes""}",implicit,Speaker Unaware,8,Yes,1,10,Speaker Unaware,10,11,0,0,NA,10,9,10.5,9.5,TRUE,0,high
379,39458,3083,survey-multi-choice,5,61522,group2,5a,"{""Q0"":""Yes""}",implicit,Speaker Aware,11,Yes,1,2,Speaker Aware,10,11,0,0,NA,10,9,10.5,9.5,TRUE,0,high
380,39458,6347,survey-multi-choice,23,259135,group2,5a,"{""Q0"":""No""}",implicit,Speaker Unaware,7,No,0,11,Speaker Unaware,10,11,0,0,NA,10,9,10.5,9.5,TRUE,0,high
381,39458,3610,survey-multi-choice,31,347933,group2,5a,"{""Q0"":""No""}",explicit,Speaker Aware,6,No,0,15,Speaker Aware,10,11,0,0,NA,10,9,10.5,9.5,TRUE,0,high
382,39458,2381,survey-multi-choice,27,303823,group2,5a,"{""Q0"":""Yes""}",explicit,Speaker Unaware,9,Yes,1,13,Speaker Unaware,10,11,0,0,NA,10,9,10.5,9.5,TRUE,0,high
383,39458,2679,survey-multi-choice,3,38659,group2,5a,"{""Q0"":""Yes""}",implicit,Speaker Unaware,2,Yes,1,1,Speaker Unaware,10,11,0,0,NA,10,9,10.5,9.5,TRUE,0,high
384,39458,3331,survey-multi-choice,29,335829,group2,5a,"{""Q0"":""Yes""}",implicit,Speaker Unaware,5,Yes,1,14,Speaker Unaware,10,11,0,0,NA,10,9,10.5,9.5,TRUE,0,high
385,39803,5880,survey-multi-choice,9,184943,group3,5a,"{""Q0"":""Yes""}",implicit,Speaker Aware,8,Yes,1,4,Speaker Aware,9,11,1,1,NA,10,9,10,9.5,TRUE,1,high
386,39803,2964,survey-multi-choice,5,115248,group3,5a,"{""Q0"":""Yes""}",implicit,Speaker Unaware,11,Yes,1,2,Speaker Unaware,9,11,1,1,NA,10,9,10,9.5,TRUE,1,high
387,39803,3199,survey-multi-choice,7,149171,group3,5a,"{""Q0"":""Yes""}",implicit,Speaker Unaware,10,Yes,1,3,Speaker Unaware,9,11,1,1,NA,10,9,10,9.5,TRUE,1,high
388,39803,3096,survey-multi-choice,11,216915,group3,5a,"{""Q0"":""No""}",implicit,Speaker Aware,7,No,0,5,Speaker Aware,9,11,1,1,NA,10,9,10,9.5,TRUE,1,high
389,39803,8381,survey-multi-choice,13,242547,group3,5a,"{""Q0"":""Yes""}",implicit,Speaker Unaware,16,Yes,1,6,Speaker Unaware,9,11,1,1,NA,10,9,10,9.5,TRUE,1,high
390,39803,3532,survey-multi-choice,27,545045,group3,5a,"{""Q0"":""No""}",explicit,Speaker Aware,9,No,0,13,Speaker Aware,9,11,1,1,NA,10,9,10,9.5,TRUE,1,high
391,39803,2624,survey-multi-choice,31,612827,group3,5a,"{""Q0"":""No""}",explicit,Speaker Aware,15,No,0,15,Speaker Aware,9,11,1,1,NA,10,9,10,9.5,TRUE,1,high
392,39803,3878,survey-multi-choice,3,90796,group3,5a,"{""Q0"":""No""}",explicit,Speaker Unaware,1,No,0,1,Speaker Unaware,9,11,1,1,NA,10,9,10,9.5,TRUE,1,high
393,39803,1700,survey-multi-choice,25,509474,group3,5a,"{""Q0"":""Yes""}",implicit,Speaker Aware,2,Yes,1,12,Speaker Aware,9,11,1,1,NA,10,9,10,9.5,TRUE,1,high
394,39803,2879,survey-multi-choice,17,394489,group3,5a,"{""Q0"":""Yes""}",explicit,Speaker Unaware,3,Yes,1,8,Speaker Unaware,9,11,1,1,NA,10,9,10,9.5,TRUE,1,high
395,39803,4356,survey-multi-choice,29,583153,group3,5a,"{""Q0"":""No""}",explicit,Speaker Aware,13,No,0,14,Speaker Aware,9,11,1,1,NA,10,9,10,9.5,TRUE,1,high
396,39803,2376,survey-multi-choice,33,645566,group3,5a,"{""Q0"":""No""}",implicit,Speaker Aware,5,No,0,16,Speaker Aware,9,11,1,1,NA,10,9,10,9.5,TRUE,1,high
397,39803,2365,survey-multi-choice,23,481627,group3,5a,"{""Q0"":""Yes""}",implicit,Speaker Unaware,14,Yes,1,11,Speaker Unaware,9,11,1,1,NA,10,9,10,9.5,TRUE,1,high
398,39803,2700,survey-multi-choice,21,460217,group3,5a,"{""Q0"":""Yes""}",explicit,Speaker Unaware,4,Yes,1,10,Speaker Unaware,9,11,1,1,NA,10,9,10,9.5,TRUE,1,high
399,39803,2935,survey-multi-choice,15,358738,group3,5a,"{""Q0"":""Yes""}",explicit,Speaker Unaware,6,Yes,1,7,Speaker Unaware,9,11,1,1,NA,10,9,10,9.5,TRUE,1,high
400,39803,1941,survey-multi-choice,19,422106,group3,5a,"{""Q0"":""No""}",explicit,Speaker Aware,12,No,0,9,Speaker Aware,9,11,1,1,NA,10,9,10,9.5,TRUE,1,high
401,39914,2735,survey-multi-choice,7,350814,group1,5a,"{""Q0"":""Yes""}",explicit,Speaker Aware,8,Yes,1,3,Speaker Aware,8,7,0,0,NA,9,6,7.5,7.5,TRUE,0,low
402,39914,1782,survey-multi-choice,9,387496,group1,5a,"{""Q0"":""Yes""}",explicit,Speaker Unaware,10,Yes,1,4,Speaker Unaware,8,7,0,0,NA,9,6,7.5,7.5,TRUE,0,low
403,39914,2004,survey-multi-choice,31,1193609,group1,5a,"{""Q0"":""Yes""}",implicit,Speaker Unaware,4,Yes,1,15,Speaker Unaware,8,7,0,0,NA,9,6,7.5,7.5,TRUE,0,low
404,39914,1412,survey-multi-choice,33,1202350,group1,5a,"{""Q0"":""No""}",explicit,Speaker Aware,7,No,0,16,Speaker Aware,8,7,0,0,NA,9,6,7.5,7.5,TRUE,0,low
405,39914,2489,survey-multi-choice,17,563818,group1,5a,"{""Q0"":""Yes""}",explicit,Speaker Unaware,16,Yes,1,8,Speaker Unaware,8,7,0,0,NA,9,6,7.5,7.5,TRUE,0,low
406,39914,4244,survey-multi-choice,19,677812,group1,5a,"{""Q0"":""No""}",explicit,Speaker Unaware,14,No,0,9,Speaker Unaware,8,7,0,0,NA,9,6,7.5,7.5,TRUE,0,low
407,39914,2770,survey-multi-choice,21,771196,group1,5a,"{""Q0"":""Yes""}",explicit,Speaker Aware,2,Yes,1,10,Speaker Aware,8,7,0,0,NA,9,6,7.5,7.5,TRUE,0,low
408,39914,2759,survey-multi-choice,23,834563,group1,5a,"{""Q0"":""No""}",explicit,Speaker Aware,5,No,0,11,Speaker Aware,8,7,0,0,NA,9,6,7.5,7.5,TRUE,0,low
409,39914,2131,survey-multi-choice,25,879696,group1,5a,"{""Q0"":""Yes""}",implicit,Speaker Aware,9,Yes,1,12,Speaker Aware,8,7,0,0,NA,9,6,7.5,7.5,TRUE,0,low
410,39914,1624,survey-multi-choice,27,1066168,group1,5a,"{""Q0"":""Yes""}",explicit,Speaker Unaware,11,Yes,1,13,Speaker Unaware,8,7,0,0,NA,9,6,7.5,7.5,TRUE,0,low
411,39914,1687,survey-multi-choice,29,1093480,group1,5a,"{""Q0"":""Yes""}",implicit,Speaker Aware,12,Yes,1,14,Speaker Aware,8,7,0,0,NA,9,6,7.5,7.5,TRUE,0,low
412,39914,4780,survey-multi-choice,3,94101,group1,5a,"{""Q0"":""No""}",implicit,Speaker Unaware,6,No,0,1,Speaker Unaware,8,7,0,0,NA,9,6,7.5,7.5,TRUE,0,low
413,39914,2591,survey-multi-choice,5,228899,group1,5a,"{""Q0"":""No""}",implicit,Speaker Unaware,3,No,0,2,Speaker Unaware,8,7,0,0,NA,9,6,7.5,7.5,TRUE,0,low
414,39914,2281,survey-multi-choice,15,555690,group1,5a,"{""Q0"":""Yes""}",implicit,Speaker Aware,13,Yes,1,7,Speaker Aware,8,7,0,0,NA,9,6,7.5,7.5,TRUE,0,low
415,39914,2076,survey-multi-choice,11,442260,group1,5a,"{""Q0"":""Yes""}",implicit,Speaker Aware,15,Yes,1,5,Speaker Aware,8,7,0,0,NA,9,6,7.5,7.5,TRUE,0,low
416,39914,2763,survey-multi-choice,13,508160,group1,5a,"{""Q0"":""No""}",implicit,Speaker Unaware,1,No,0,6,Speaker Unaware,8,7,0,0,NA,9,6,7.5,7.5,TRUE,0,low
417,40360,2793,survey-multi-choice,31,2050999,group4,5a,"{""Q0"":""Yes""}",explicit,Speaker Aware,11,Yes,1,15,Speaker Aware,8,6,1,1,NA,7,4,7,5.5,TRUE,1,low
418,40360,2063,survey-multi-choice,23,1717134,group4,5a,"{""Q0"":""Yes""}",implicit,Speaker Aware,3,Yes,1,11,Speaker Aware,8,6,1,1,NA,7,4,7,5.5,TRUE,1,low
419,40360,40886,survey-multi-choice,25,1790321,group4,5a,"{""Q0"":""Yes""}",explicit,Speaker Aware,10,Yes,1,12,Speaker Aware,8,6,1,1,NA,7,4,7,5.5,TRUE,1,low
420,40360,4338,survey-multi-choice,27,1862768,group4,5a,"{""Q0"":""Yes""}",implicit,Speaker Unaware,12,Yes,1,13,Speaker Unaware,8,6,1,1,NA,7,4,7,5.5,TRUE,1,low
421,40360,3205,survey-multi-choice,33,2107555,group4,5a,"{""Q0"":""No""}",implicit,Speaker Aware,1,No,0,16,Speaker Aware,8,6,1,1,NA,7,4,7,5.5,TRUE,1,low
422,40360,3262,survey-multi-choice,21,1634051,group4,5a,"{""Q0"":""Yes""}",explicit,Speaker Aware,14,Yes,1,10,Speaker Aware,8,6,1,1,NA,7,4,7,5.5,TRUE,1,low
423,40360,2280,survey-multi-choice,19,1604399,group4,5a,"{""Q0"":""No""}",explicit,Speaker Unaware,7,No,0,9,Speaker Unaware,8,6,1,1,NA,7,4,7,5.5,TRUE,1,low
424,40360,4757,survey-multi-choice,3,38058,group4,5a,"{""Q0"":""Yes""}",implicit,Speaker Aware,6,Yes,1,1,Speaker Aware,8,6,1,1,NA,7,4,7,5.5,TRUE,1,low
425,40360,2805,survey-multi-choice,29,2020614,group4,5a,"{""Q0"":""Yes""}",explicit,Speaker Unaware,5,Yes,1,14,Speaker Unaware,8,6,1,1,NA,7,4,7,5.5,TRUE,1,low
426,40360,5742,survey-multi-choice,11,715804,group4,5a,"{""Q0"":""Yes""}",implicit,Speaker Unaware,9,Yes,1,5,Speaker Unaware,8,6,1,1,NA,7,4,7,5.5,TRUE,1,low
427,40360,3166,survey-multi-choice,7,595783,group4,5a,"{""Q0"":""Yes""}",explicit,Speaker Aware,16,Yes,1,3,Speaker Aware,8,6,1,1,NA,7,4,7,5.5,TRUE,1,low
428,40360,7278,survey-multi-choice,9,650645,group4,5a,"{""Q0"":""No""}",implicit,Speaker Unaware,13,No,0,4,Speaker Unaware,8,6,1,1,NA,7,4,7,5.5,TRUE,1,low
429,40360,4044,survey-multi-choice,5,480084,group4,5a,"{""Q0"":""No""}",explicit,Speaker Unaware,8,No,0,2,Speaker Unaware,8,6,1,1,NA,7,4,7,5.5,TRUE,1,low
430,40360,3044,survey-multi-choice,17,1475424,group4,5a,"{""Q0"":""Yes""}",implicit,Speaker Aware,4,Yes,1,8,Speaker Aware,8,6,1,1,NA,7,4,7,5.5,TRUE,1,low
431,40360,3614,survey-multi-choice,15,1254099,group4,5a,"{""Q0"":""Yes""}",implicit,Speaker Unaware,15,Yes,1,7,Speaker Unaware,8,6,1,1,NA,7,4,7,5.5,TRUE,1,low
432,40360,4243,survey-multi-choice,13,1035153,group4,5a,"{""Q0"":""No""}",explicit,Speaker Unaware,2,No,0,6,Speaker Unaware,8,6,1,1,NA,7,4,7,5.5,TRUE,1,low
433,41413,10973,survey-multi-choice,3,110423,group3,5a,"{""Q0"":""No""}",implicit,Speaker Unaware,16,No,0,1,Speaker Unaware,5,6,0,0,NA,4,6,5.5,5,TRUE,0,low
434,41413,2779,survey-multi-choice,19,371119,group3,5a,"{""Q0"":""Yes""}",explicit,Speaker Aware,9,Yes,1,9,Speaker Aware,5,6,0,0,NA,4,6,5.5,5,TRUE,0,low
435,41413,1861,survey-multi-choice,23,417991,group3,5a,"{""Q0"":""Yes""}",implicit,Speaker Aware,7,Yes,1,11,Speaker Aware,5,6,0,0,NA,4,6,5.5,5,TRUE,0,low
436,41413,2118,survey-multi-choice,17,333744,group3,5a,"{""Q0"":""Yes""}",implicit,Speaker Aware,2,Yes,1,8,Speaker Aware,5,6,0,0,NA,4,6,5.5,5,TRUE,0,low
437,41413,2420,survey-multi-choice,27,469774,group3,5a,"{""Q0"":""Yes""}",explicit,Speaker Aware,15,Yes,1,13,Speaker Aware,5,6,0,0,NA,4,6,5.5,5,TRUE,0,low
438,41413,2860,survey-multi-choice,21,391971,group3,5a,"{""Q0"":""No""}",implicit,Speaker Unaware,11,No,0,10,Speaker Unaware,5,6,0,0,NA,4,6,5.5,5,TRUE,0,low
439,41413,2922,survey-multi-choice,25,451048,group3,5a,"{""Q0"":""Yes""}",implicit,Speaker Aware,8,Yes,1,12,Speaker Aware,5,6,0,0,NA,4,6,5.5,5,TRUE,0,low
440,41413,3691,survey-multi-choice,15,298847,group3,5a,"{""Q0"":""No""}",implicit,Speaker Unaware,14,No,0,7,Speaker Unaware,5,6,0,0,NA,4,6,5.5,5,TRUE,0,low
441,41413,9293,survey-multi-choice,7,177933,group3,5a,"{""Q0"":""Yes""}",implicit,Speaker Aware,5,Yes,1,3,Speaker Aware,5,6,0,0,NA,4,6,5.5,5,TRUE,0,low
442,41413,3751,survey-multi-choice,29,504628,group3,5a,"{""Q0"":""Yes""}",explicit,Speaker Unaware,1,Yes,1,14,Speaker Unaware,5,6,0,0,NA,4,6,5.5,5,TRUE,0,low
443,41413,2792,survey-multi-choice,9,210063,group3,5a,"{""Q0"":""Yes""}",explicit,Speaker Unaware,3,Yes,1,4,Speaker Unaware,5,6,0,0,NA,4,6,5.5,5,TRUE,0,low
444,41413,2778,survey-multi-choice,5,136349,group3,5a,"{""Q0"":""Yes""}",explicit,Speaker Unaware,4,Yes,1,2,Speaker Unaware,5,6,0,0,NA,4,6,5.5,5,TRUE,0,low
445,41413,1668,survey-multi-choice,13,272384,group3,5a,"{""Q0"":""Yes""}",explicit,Speaker Unaware,6,Yes,1,6,Speaker Unaware,5,6,0,0,NA,4,6,5.5,5,TRUE,0,low
446,41413,2181,survey-multi-choice,31,560943,group3,5a,"{""Q0"":""No""}",explicit,Speaker Aware,13,No,0,15,Speaker Aware,5,6,0,0,NA,4,6,5.5,5,TRUE,0,low
447,41413,3037,survey-multi-choice,11,236295,group3,5a,"{""Q0"":""Yes""}",explicit,Speaker Aware,12,Yes,1,5,Speaker Aware,5,6,0,0,NA,4,6,5.5,5,TRUE,0,low
448,41413,2886,survey-multi-choice,33,601896,group3,5a,"{""Q0"":""Yes""}",implicit,Speaker Unaware,10,Yes,1,16,Speaker Unaware,5,6,0,0,NA,4,6,5.5,5,TRUE,0,low
449,41916,4211,survey-multi-choice,11,294930,group1,5a,"{""Q0"":""Yes""}",implicit,Speaker Unaware,6,Yes,1,5,Speaker Unaware,9,9,0,0,NA,10,8,9,9,TRUE,0,low
450,41916,6558,survey-multi-choice,5,178498,group1,5a,"{""Q0"":""No""}",explicit,Speaker Aware,7,No,0,2,Speaker Aware,9,9,0,0,NA,10,8,9,9,TRUE,0,low
451,41916,4313,survey-multi-choice,9,271929,group1,5a,"{""Q0"":""No""}",implicit,Speaker Aware,13,No,0,4,Speaker Aware,9,9,0,0,NA,10,8,9,9,TRUE,0,low
452,41916,3754,survey-multi-choice,13,338297,group1,5a,"{""Q0"":""Yes""}",explicit,Speaker Aware,8,Yes,1,6,Speaker Aware,9,9,0,0,NA,10,8,9,9,TRUE,0,low
453,41916,7750,survey-multi-choice,3,129861,group1,5a,"{""Q0"":""Yes""}",explicit,Speaker Unaware,11,Yes,1,1,Speaker Unaware,9,9,0,0,NA,10,8,9,9,TRUE,0,low
454,41916,5165,survey-multi-choice,7,228277,group1,5a,"{""Q0"":""No""}",explicit,Speaker Aware,2,No,0,3,Speaker Aware,9,9,0,0,NA,10,8,9,9,TRUE,0,low
455,41916,4228,survey-multi-choice,15,374068,group1,5a,"{""Q0"":""Yes""}",explicit,Speaker Unaware,10,Yes,1,7,Speaker Unaware,9,9,0,0,NA,10,8,9,9,TRUE,0,low
456,41916,4077,survey-multi-choice,21,520527,group1,5a,"{""Q0"":""Yes""}",explicit,Speaker Unaware,14,Yes,1,10,Speaker Unaware,9,9,0,0,NA,10,8,9,9,TRUE,0,low
457,41916,7947,survey-multi-choice,17,422153,group1,5a,"{""Q0"":""No""}",explicit,Speaker Unaware,16,No,0,8,Speaker Unaware,9,9,0,0,NA,10,8,9,9,TRUE,0,low
458,41916,3048,survey-multi-choice,33,761424,group1,5a,"{""Q0"":""Yes""}",implicit,Speaker Unaware,1,Yes,1,16,Speaker Unaware,9,9,0,0,NA,10,8,9,9,TRUE,0,low
459,41916,4057,survey-multi-choice,29,676884,group1,5a,"{""Q0"":""No""}",implicit,Speaker Aware,9,No,0,14,Speaker Aware,9,9,0,0,NA,10,8,9,9,TRUE,0,low
460,41916,3443,survey-multi-choice,23,573711,group1,5a,"{""Q0"":""Yes""}",implicit,Speaker Unaware,3,Yes,1,11,Speaker Unaware,9,9,0,0,NA,10,8,9,9,TRUE,0,low
461,41916,4281,survey-multi-choice,31,718472,group1,5a,"{""Q0"":""Yes""}",implicit,Speaker Unaware,4,Yes,1,15,Speaker Unaware,9,9,0,0,NA,10,8,9,9,TRUE,0,low
462,41916,5302,survey-multi-choice,19,478691,group1,5a,"{""Q0"":""No""}",explicit,Speaker Aware,5,No,0,9,Speaker Aware,9,9,0,0,NA,10,8,9,9,TRUE,0,low
463,41916,2746,survey-multi-choice,27,647131,group1,5a,"{""Q0"":""No""}",implicit,Speaker Aware,12,No,0,13,Speaker Aware,9,9,0,0,NA,10,8,9,9,TRUE,0,low
464,41916,5370,survey-multi-choice,25,614400,group1,5a,"{""Q0"":""Yes""}",implicit,Speaker Aware,15,Yes,1,12,Speaker Aware,9,9,0,0,NA,10,8,9,9,TRUE,0,low
465,43699,4555,survey-multi-choice,5,127164,group2,5a,"{""Q0"":""No""}",explicit,Speaker Aware,6,No,0,2,Speaker Aware,9,11,0,0,NA,8,8,10,8,TRUE,0,low
466,43699,9948,survey-multi-choice,3,104867,group2,5a,"{""Q0"":""Yes""}",implicit,Speaker Aware,10,Yes,1,1,Speaker Aware,9,11,0,0,NA,8,8,10,8,TRUE,0,low
467,43699,2099,survey-multi-choice,13,282754,group2,5a,"{""Q0"":""Yes""}",implicit,Speaker Aware,16,Yes,1,6,Speaker Aware,9,11,0,0,NA,8,8,10,8,TRUE,0,low
468,43699,2148,survey-multi-choice,15,303105,group2,5a,"{""Q0"":""No""}",implicit,Speaker Aware,11,No,0,7,Speaker Aware,9,11,0,0,NA,8,8,10,8,TRUE,0,low
469,43699,2070,survey-multi-choice,17,329486,group2,5a,"{""Q0"":""Yes""}",explicit,Speaker Unaware,15,Yes,1,8,Speaker Unaware,9,11,0,0,NA,8,8,10,8,TRUE,0,low
470,43699,1459,survey-multi-choice,19,372034,group2,5a,"{""Q0"":""No""}",explicit,Speaker Unaware,12,No,0,9,Speaker Unaware,9,11,0,0,NA,8,8,10,8,TRUE,0,low
471,43699,4215,survey-multi-choice,21,400744,group2,5a,"{""Q0"":""Yes""}",implicit,Speaker Unaware,2,Yes,1,10,Speaker Unaware,9,11,0,0,NA,8,8,10,8,TRUE,0,low
472,43699,5142,survey-multi-choice,23,439568,group2,5a,"{""Q0"":""No""}",implicit,Speaker Unaware,7,No,0,11,Speaker Unaware,9,11,0,0,NA,8,8,10,8,TRUE,0,low
473,43699,13182,survey-multi-choice,25,457163,group2,5a,"{""Q0"":""No""}",explicit,Speaker Unaware,13,No,0,12,Speaker Unaware,9,11,0,0,NA,8,8,10,8,TRUE,0,low
474,43699,1360,survey-multi-choice,27,470383,group2,5a,"{""Q0"":""No""}",explicit,Speaker Aware,4,No,0,13,Speaker Aware,9,11,0,0,NA,8,8,10,8,TRUE,0,low
475,43699,1923,survey-multi-choice,29,493680,group2,5a,"{""Q0"":""No""}",explicit,Speaker Aware,3,No,0,14,Speaker Aware,9,11,0,0,NA,8,8,10,8,TRUE,0,low
476,43699,1857,survey-multi-choice,31,518521,group2,5a,"{""Q0"":""No""}",explicit,Speaker Aware,1,No,0,15,Speaker Aware,9,11,0,0,NA,8,8,10,8,TRUE,0,low
477,43699,2485,survey-multi-choice,7,201616,group2,5a,"{""Q0"":""Yes""}",implicit,Speaker Unaware,5,Yes,1,3,Speaker Unaware,9,11,0,0,NA,8,8,10,8,TRUE,0,low
478,43699,2338,survey-multi-choice,9,241645,group2,5a,"{""Q0"":""Yes""}",implicit,Speaker Unaware,8,Yes,1,4,Speaker Unaware,9,11,0,0,NA,8,8,10,8,TRUE,0,low
479,43699,3057,survey-multi-choice,11,256629,group2,5a,"{""Q0"":""No""}",explicit,Speaker Unaware,9,No,0,5,Speaker Unaware,9,11,0,0,NA,8,8,10,8,TRUE,0,low
480,43699,1303,survey-multi-choice,33,583086,group2,5a,"{""Q0"":""No""}",implicit,Speaker Aware,14,No,0,16,Speaker Aware,9,11,0,0,NA,8,8,10,8,TRUE,0,low
481,48258,3530,survey-multi-choice,33,1532917,group1,5a,"{""Q0"":""Yes""}",implicit,Speaker Aware,9,Yes,1,16,Speaker Aware,12,12,0,1,1,8,8,12,8,FALSE,1,low
482,48258,3314,survey-multi-choice,7,340946,group1,5a,"{""Q0"":""Yes""}",explicit,Speaker Aware,7,Yes,1,3,Speaker Aware,12,12,0,1,1,8,8,12,8,FALSE,1,low
483,48258,6150,survey-multi-choice,9,403915,group1,5a,"{""Q0"":""No""}",explicit,Speaker Unaware,14,No,0,4,Speaker Unaware,12,12,0,1,1,8,8,12,8,FALSE,1,low
484,48258,26641,survey-multi-choice,13,507697,group1,5a,"{""Q0"":""No""}",implicit,Speaker Unaware,3,No,0,6,Speaker Unaware,12,12,0,1,1,8,8,12,8,FALSE,1,low
485,48258,4201,survey-multi-choice,15,560091,group1,5a,"{""Q0"":""Yes""}",implicit,Speaker Unaware,1,Yes,1,7,Speaker Unaware,12,12,0,1,1,8,8,12,8,FALSE,1,low
486,48258,1959,survey-multi-choice,17,634854,group1,5a,"{""Q0"":""Yes""}",explicit,Speaker Unaware,16,Yes,1,8,Speaker Unaware,12,12,0,1,1,8,8,12,8,FALSE,1,low
487,48258,1957,survey-multi-choice,11,450647,group1,5a,"{""Q0"":""Yes""}",implicit,Speaker Aware,15,Yes,1,5,Speaker Aware,12,12,0,1,1,8,8,12,8,FALSE,1,low
488,48258,3548,survey-multi-choice,21,954445,group1,5a,"{""Q0"":""Yes""}",implicit,Speaker Unaware,4,Yes,1,10,Speaker Unaware,12,12,0,1,1,8,8,12,8,FALSE,1,low
489,48258,2254,survey-multi-choice,23,1066544,group1,5a,"{""Q0"":""No""}",explicit,Speaker Aware,5,No,0,11,Speaker Aware,12,12,0,1,1,8,8,12,8,FALSE,1,low
490,48258,2238,survey-multi-choice,25,1215595,group1,5a,"{""Q0"":""Yes""}",explicit,Speaker Unaware,11,Yes,1,12,Speaker Unaware,12,12,0,1,1,8,8,12,8,FALSE,1,low
491,48258,1844,survey-multi-choice,19,749783,group1,5a,"{""Q0"":""No""}",explicit,Speaker Aware,2,No,0,9,Speaker Aware,12,12,0,1,1,8,8,12,8,FALSE,1,low
492,48258,18968,survey-multi-choice,3,217169,group1,5a,"{""Q0"":""No""}",implicit,Speaker Unaware,6,No,0,1,Speaker Unaware,12,12,0,1,1,8,8,12,8,FALSE,1,low
493,48258,6937,survey-multi-choice,5,311287,group1,5a,"{""Q0"":""No""}",implicit,Speaker Aware,13,No,0,2,Speaker Aware,12,12,0,1,1,8,8,12,8,FALSE,1,low
494,48258,2002,survey-multi-choice,31,1400955,group1,5a,"{""Q0"":""No""}",explicit,Speaker Aware,8,No,0,15,Speaker Aware,12,12,0,1,1,8,8,12,8,FALSE,1,low
495,48258,2421,survey-multi-choice,27,1271646,group1,5a,"{""Q0"":""No""}",implicit,Speaker Aware,12,No,0,13,Speaker Aware,12,12,0,1,1,8,8,12,8,FALSE,1,low
496,48258,3781,survey-multi-choice,29,1346976,group1,5a,"{""Q0"":""Yes""}",explicit,Speaker Unaware,10,Yes,1,14,Speaker Unaware,12,12,0,1,1,8,8,12,8,FALSE,1,low
497,50019,24988,survey-multi-choice,15,201722,group2,5a,"{""Q0"":""Yes""}",implicit,Speaker Aware,16,Yes,1,7,Speaker Aware,1,2,0,0,NA,7,6,1.5,6.5,TRUE,0,low
498,50019,18572,survey-multi-choice,11,154787,group2,5a,"{""Q0"":""No""}",implicit,Speaker Unaware,5,No,0,5,Speaker Unaware,1,2,0,0,NA,7,6,1.5,6.5,TRUE,0,low
499,50019,5781,survey-multi-choice,17,212300,group2,5a,"{""Q0"":""No""}",implicit,Speaker Unaware,7,No,0,8,Speaker Unaware,1,2,0,0,NA,7,6,1.5,6.5,TRUE,0,low
500,50019,6696,survey-multi-choice,19,1063051,group2,5a,"{""Q0"":""No""}",explicit,Speaker Unaware,13,No,0,9,Speaker Unaware,1,2,0,0,NA,7,6,1.5,6.5,TRUE,0,low
501,50019,24930,survey-multi-choice,21,1101238,group2,5a,"{""Q0"":""Yes""}",implicit,Speaker Aware,10,Yes,1,10,Speaker Aware,1,2,0,0,NA,7,6,1.5,6.5,TRUE,0,low
502,50019,12728,survey-multi-choice,13,171974,group2,5a,"{""Q0"":""No""}",explicit,Speaker Unaware,15,No,0,6,Speaker Unaware,1,2,0,0,NA,7,6,1.5,6.5,TRUE,0,low
503,50019,4912,survey-multi-choice,27,1169701,group2,5a,"{""Q0"":""No""}",implicit,Speaker Unaware,2,No,0,13,Speaker Unaware,1,2,0,0,NA,7,6,1.5,6.5,TRUE,0,low
504,50019,17878,survey-multi-choice,7,116245,group2,5a,"{""Q0"":""No""}",explicit,Speaker Aware,1,No,0,3,Speaker Aware,1,2,0,0,NA,7,6,1.5,6.5,TRUE,0,low
505,50019,1501,survey-multi-choice,25,1156904,group2,5a,"{""Q0"":""Yes""}",explicit,Speaker Aware,6,Yes,1,12,Speaker Aware,1,2,0,0,NA,7,6,1.5,6.5,TRUE,0,low
506,50019,13306,survey-multi-choice,3,52750,group2,5a,"{""Q0"":""No""}",explicit,Speaker Aware,4,No,0,1,Speaker Aware,1,2,0,0,NA,7,6,1.5,6.5,TRUE,0,low
507,50019,4866,survey-multi-choice,9,128126,group2,5a,"{""Q0"":""No""}",explicit,Speaker Aware,3,No,0,4,Speaker Aware,1,2,0,0,NA,7,6,1.5,6.5,TRUE,0,low
508,50019,5552,survey-multi-choice,23,1132545,group2,5a,"{""Q0"":""No""}",implicit,Speaker Unaware,8,No,0,11,Speaker Unaware,1,2,0,0,NA,7,6,1.5,6.5,TRUE,0,low
509,50019,5236,survey-multi-choice,33,1236305,group2,5a,"{""Q0"":""No""}",explicit,Speaker Unaware,12,No,0,16,Speaker Unaware,1,2,0,0,NA,7,6,1.5,6.5,TRUE,0,low
510,50019,9167,survey-multi-choice,5,92073,group2,5a,"{""Q0"":""No""}",explicit,Speaker Unaware,9,No,0,2,Speaker Unaware,1,2,0,0,NA,7,6,1.5,6.5,TRUE,0,low
511,50019,2056,survey-multi-choice,31,1221604,group2,5a,"{""Q0"":""Yes""}",implicit,Speaker Aware,11,Yes,1,15,Speaker Aware,1,2,0,0,NA,7,6,1.5,6.5,TRUE,0,low
512,50019,11865,survey-multi-choice,29,1204178,group2,5a,"{""Q0"":""No""}",implicit,Speaker Aware,14,No,0,14,Speaker Aware,1,2,0,0,NA,7,6,1.5,6.5,TRUE,0,low
513,56150,10132,survey-multi-choice,5,99457,group4,5a,"{""Q0"":""Yes""}",explicit,Speaker Aware,14,Yes,1,2,Speaker Aware,4,5,0,0,NA,6,6,4.5,6,TRUE,0,low
514,56150,5307,survey-multi-choice,3,82049,group4,5a,"{""Q0"":""No""}",implicit,Speaker Unaware,12,No,0,1,Speaker Unaware,4,5,0,0,NA,6,6,4.5,6,TRUE,0,low
515,56150,3283,survey-multi-choice,13,151522,group4,5a,"{""Q0"":""Yes""}",explicit,Speaker Aware,11,Yes,1,6,Speaker Aware,4,5,0,0,NA,6,6,4.5,6,TRUE,0,low
516,56150,9949,survey-multi-choice,7,115501,group4,5a,"{""Q0"":""Yes""}",explicit,Speaker Aware,10,Yes,1,3,Speaker Aware,4,5,0,0,NA,6,6,4.5,6,TRUE,0,low
517,56150,3304,survey-multi-choice,9,126375,group4,5a,"{""Q0"":""Yes""}",explicit,Speaker Unaware,5,Yes,1,4,Speaker Unaware,4,5,0,0,NA,6,6,4.5,6,TRUE,0,low
518,56150,4587,survey-multi-choice,11,134510,group4,5a,"{""Q0"":""No""}",implicit,Speaker Unaware,9,No,0,5,Speaker Unaware,4,5,0,0,NA,6,6,4.5,6,TRUE,0,low
519,56150,1380,survey-multi-choice,21,183418,group4,5a,"{""Q0"":""Yes""}",explicit,Speaker Unaware,8,Yes,1,10,Speaker Unaware,4,5,0,0,NA,6,6,4.5,6,TRUE,0,low
520,56150,12811,survey-multi-choice,15,167232,group4,5a,"{""Q0"":""No""}",explicit,Speaker Unaware,7,No,0,7,Speaker Unaware,4,5,0,0,NA,6,6,4.5,6,TRUE,0,low
521,56150,2226,survey-multi-choice,17,173914,group4,5a,"{""Q0"":""No""}",explicit,Speaker Aware,16,No,0,8,Speaker Aware,4,5,0,0,NA,6,6,4.5,6,TRUE,0,low
522,56150,1985,survey-multi-choice,19,178973,group4,5a,"{""Q0"":""No""}",implicit,Speaker Aware,4,No,0,9,Speaker Aware,4,5,0,0,NA,6,6,4.5,6,TRUE,0,low
523,56150,1273,survey-multi-choice,29,233018,group4,5a,"{""Q0"":""No""}",explicit,Speaker Unaware,2,No,0,14,Speaker Unaware,4,5,0,0,NA,6,6,4.5,6,TRUE,0,low
524,56150,4195,survey-multi-choice,31,240727,group4,5a,"{""Q0"":""Yes""}",implicit,Speaker Aware,1,Yes,1,15,Speaker Aware,4,5,0,0,NA,6,6,4.5,6,TRUE,0,low
525,56150,3741,survey-multi-choice,33,248072,group4,5a,"{""Q0"":""Yes""}",implicit,Speaker Unaware,15,Yes,1,16,Speaker Unaware,4,5,0,0,NA,6,6,4.5,6,TRUE,0,low
526,56150,3447,survey-multi-choice,25,223882,group4,5a,"{""Q0"":""No""}",implicit,Speaker Unaware,13,No,0,12,Speaker Unaware,4,5,0,0,NA,6,6,4.5,6,TRUE,0,low
527,56150,1806,survey-multi-choice,27,228829,group4,5a,"{""Q0"":""Yes""}",implicit,Speaker Aware,6,Yes,1,13,Speaker Aware,4,5,0,0,NA,6,6,4.5,6,TRUE,0,low
528,56150,30799,survey-multi-choice,23,217123,group4,5a,"{""Q0"":""Yes""}",implicit,Speaker Aware,3,Yes,1,11,Speaker Aware,4,5,0,0,NA,6,6,4.5,6,TRUE,0,low
529,57842,2125,survey-multi-choice,9,687170,group1,5a,"{""Q0"":""Yes""}",explicit,Speaker Aware,2,Yes,1,4,Speaker Aware,7,7,0,0,NA,6,5,7,5.5,TRUE,0,low
530,57842,13924,survey-multi-choice,11,765708,group1,5a,"{""Q0"":""No""}",implicit,Speaker Aware,9,No,0,5,Speaker Aware,7,7,0,0,NA,6,5,7,5.5,TRUE,0,low
531,57842,3095,survey-multi-choice,7,183589,group1,5a,"{""Q0"":""Yes""}",implicit,Speaker Unaware,6,Yes,1,3,Speaker Unaware,7,7,0,0,NA,6,5,7,5.5,TRUE,0,low
532,57842,1359,survey-multi-choice,29,1220437,group1,5a,"{""Q0"":""No""}",implicit,Speaker Aware,15,No,0,14,Speaker Aware,7,7,0,0,NA,6,5,7,5.5,TRUE,0,low
533,57842,3753,survey-multi-choice,5,157946,group1,5a,"{""Q0"":""No""}",explicit,Speaker Unaware,11,No,0,2,Speaker Unaware,7,7,0,0,NA,6,5,7,5.5,TRUE,0,low
534,57842,8724,survey-multi-choice,15,911981,group1,5a,"{""Q0"":""Yes""}",implicit,Speaker Unaware,4,Yes,1,7,Speaker Unaware,7,7,0,0,NA,6,5,7,5.5,TRUE,0,low
535,57842,1677,survey-multi-choice,27,1176507,group1,5a,"{""Q0"":""No""}",implicit,Speaker Aware,12,No,0,13,Speaker Aware,7,7,0,0,NA,6,5,7,5.5,TRUE,0,low
536,57842,6754,survey-multi-choice,3,125038,group1,5a,"{""Q0"":""Yes""}",implicit,Speaker Aware,13,Yes,1,1,Speaker Aware,7,7,0,0,NA,6,5,7,5.5,TRUE,0,low
537,57842,1542,survey-multi-choice,13,824405,group1,5a,"{""Q0"":""No""}",explicit,Speaker Aware,5,No,0,6,Speaker Aware,7,7,0,0,NA,6,5,7,5.5,TRUE,0,low
538,57842,1766,survey-multi-choice,25,1146341,group1,5a,"{""Q0"":""Yes""}",explicit,Speaker Unaware,14,Yes,1,12,Speaker Unaware,7,7,0,0,NA,6,5,7,5.5,TRUE,0,low
539,57842,2237,survey-multi-choice,17,935316,group1,5a,"{""Q0"":""Yes""}",explicit,Speaker Unaware,16,Yes,1,8,Speaker Unaware,7,7,0,0,NA,6,5,7,5.5,TRUE,0,low
540,57842,5558,survey-multi-choice,31,1252013,group1,5a,"{""Q0"":""Yes""}",explicit,Speaker Unaware,10,Yes,1,15,Speaker Unaware,7,7,0,0,NA,6,5,7,5.5,TRUE,0,low
541,57842,1694,survey-multi-choice,23,1111012,group1,5a,"{""Q0"":""Yes""}",explicit,Speaker Aware,8,Yes,1,11,Speaker Aware,7,7,0,0,NA,6,5,7,5.5,TRUE,0,low
542,57842,1764,survey-multi-choice,19,1011796,group1,5a,"{""Q0"":""No""}",explicit,Speaker Aware,7,No,0,9,Speaker Aware,7,7,0,0,NA,6,5,7,5.5,TRUE,0,low
543,57842,2828,survey-multi-choice,21,1064133,group1,5a,"{""Q0"":""Yes""}",implicit,Speaker Unaware,3,Yes,1,10,Speaker Unaware,7,7,0,0,NA,6,5,7,5.5,TRUE,0,low
544,57842,1475,survey-multi-choice,33,1298910,group1,5a,"{""Q0"":""Yes""}",implicit,Speaker Unaware,1,Yes,1,16,Speaker Unaware,7,7,0,0,NA,6,5,7,5.5,TRUE,0,low
545,58782,2383,survey-multi-choice,7,291327,group1,5a,"{""Q0"":""Yes""}",implicit,Speaker Unaware,4,Yes,1,3,Speaker Unaware,12,11,1,1,NA,10,10,11.5,10,TRUE,1,high
546,58782,5902,survey-multi-choice,3,239197,group1,5a,"{""Q0"":""No""}",explicit,Speaker Aware,7,No,0,1,Speaker Aware,12,11,1,1,NA,10,10,11.5,10,TRUE,1,high
547,58782,2156,survey-multi-choice,5,264521,group1,5a,"{""Q0"":""Yes""}",explicit,Speaker Unaware,10,Yes,1,2,Speaker Unaware,12,11,1,1,NA,10,10,11.5,10,TRUE,1,high
548,58782,1853,survey-multi-choice,15,442770,group1,5a,"{""Q0"":""No""}",explicit,Speaker Aware,2,No,0,7,Speaker Aware,12,11,1,1,NA,10,10,11.5,10,TRUE,1,high
549,58782,3118,survey-multi-choice,9,315485,group1,5a,"{""Q0"":""Yes""}",explicit,Speaker Unaware,16,Yes,1,4,Speaker Unaware,12,11,1,1,NA,10,10,11.5,10,TRUE,1,high
550,58782,2258,survey-multi-choice,11,396164,group1,5a,"{""Q0"":""Yes""}",implicit,Speaker Unaware,1,Yes,1,5,Speaker Unaware,12,11,1,1,NA,10,10,11.5,10,TRUE,1,high
551,58782,1516,survey-multi-choice,13,414882,group1,5a,"{""Q0"":""Yes""}",implicit,Speaker Aware,12,Yes,1,6,Speaker Aware,12,11,1,1,NA,10,10,11.5,10,TRUE,1,high
552,58782,4631,survey-multi-choice,19,534995,group1,5a,"{""Q0"":""No""}",implicit,Speaker Aware,9,No,0,9,Speaker Aware,12,11,1,1,NA,10,10,11.5,10,TRUE,1,high
553,58782,1763,survey-multi-choice,21,550828,group1,5a,"{""Q0"":""Yes""}",implicit,Speaker Unaware,6,Yes,1,10,Speaker Unaware,12,11,1,1,NA,10,10,11.5,10,TRUE,1,high
554,58782,1364,survey-multi-choice,23,729896,group1,5a,"{""Q0"":""Yes""}",explicit,Speaker Unaware,11,Yes,1,11,Speaker Unaware,12,11,1,1,NA,10,10,11.5,10,TRUE,1,high
555,58782,2427,survey-multi-choice,25,756452,group1,5a,"{""Q0"":""Yes""}",implicit,Speaker Unaware,3,Yes,1,12,Speaker Unaware,12,11,1,1,NA,10,10,11.5,10,TRUE,1,high
556,58782,1636,survey-multi-choice,27,782905,group1,5a,"{""Q0"":""Yes""}",explicit,Speaker Unaware,14,Yes,1,13,Speaker Unaware,12,11,1,1,NA,10,10,11.5,10,TRUE,1,high
557,58782,1361,survey-multi-choice,29,810574,group1,5a,"{""Q0"":""Yes""}",implicit,Speaker Aware,13,Yes,1,14,Speaker Aware,12,11,1,1,NA,10,10,11.5,10,TRUE,1,high
558,58782,1432,survey-multi-choice,31,845352,group1,5a,"{""Q0"":""Yes""}",implicit,Speaker Aware,15,Yes,1,15,Speaker Aware,12,11,1,1,NA,10,10,11.5,10,TRUE,1,high
559,58782,1304,survey-multi-choice,33,884077,group1,5a,"{""Q0"":""No""}",explicit,Speaker Aware,8,No,0,16,Speaker Aware,12,11,1,1,NA,10,10,11.5,10,TRUE,1,high
560,58782,1699,survey-multi-choice,17,507629,group1,5a,"{""Q0"":""No""}",explicit,Speaker Aware,5,No,0,8,Speaker Aware,12,11,1,1,NA,10,10,11.5,10,TRUE,1,high
561,59529,4308,survey-multi-choice,3,302672,group2,5a,"{""Q0"":""Yes""}",explicit,Speaker Unaware,15,Yes,1,1,Speaker Unaware,12,10,1,1,NA,10,9,11,9.5,TRUE,1,high
562,59529,2508,survey-multi-choice,5,332745,group2,5a,"{""Q0"":""No""}",explicit,Speaker Aware,4,No,0,2,Speaker Aware,12,10,1,1,NA,10,9,11,9.5,TRUE,1,high
563,59529,2763,survey-multi-choice,23,613626,group2,5a,"{""Q0"":""Yes""}",explicit,Speaker Unaware,12,Yes,1,11,Speaker Unaware,12,10,1,1,NA,10,9,11,9.5,TRUE,1,high
564,59529,1683,survey-multi-choice,27,649172,group2,5a,"{""Q0"":""Yes""}",implicit,Speaker Aware,14,Yes,1,13,Speaker Aware,12,10,1,1,NA,10,9,11,9.5,TRUE,1,high
565,59529,2176,survey-multi-choice,21,591044,group2,5a,"{""Q0"":""No""}",explicit,Speaker Aware,3,No,0,10,Speaker Aware,12,10,1,1,NA,10,9,11,9.5,TRUE,1,high
566,59529,2291,survey-multi-choice,31,685998,group2,5a,"{""Q0"":""Yes""}",explicit,Speaker Unaware,9,Yes,1,15,Speaker Unaware,12,10,1,1,NA,10,9,11,9.5,TRUE,1,high
567,59529,1623,survey-multi-choice,25,626338,group2,5a,"{""Q0"":""Yes""}",explicit,Speaker Aware,6,Yes,1,12,Speaker Aware,12,10,1,1,NA,10,9,11,9.5,TRUE,1,high
568,59529,1426,survey-multi-choice,29,670133,group2,5a,"{""Q0"":""Yes""}",implicit,Speaker Unaware,7,Yes,1,14,Speaker Unaware,12,10,1,1,NA,10,9,11,9.5,TRUE,1,high
569,59529,1677,survey-multi-choice,19,566333,group2,5a,"{""Q0"":""Yes""}",implicit,Speaker Unaware,8,Yes,1,9,Speaker Unaware,12,10,1,1,NA,10,9,11,9.5,TRUE,1,high
570,59529,1896,survey-multi-choice,11,469711,group2,5a,"{""Q0"":""Yes""}",implicit,Speaker Unaware,2,Yes,1,5,Speaker Unaware,12,10,1,1,NA,10,9,11,9.5,TRUE,1,high
571,59529,2435,survey-multi-choice,7,403780,group2,5a,"{""Q0"":""No""}",implicit,Speaker Unaware,5,No,0,3,Speaker Unaware,12,10,1,1,NA,10,9,11,9.5,TRUE,1,high
572,59529,1900,survey-multi-choice,33,711818,group2,5a,"{""Q0"":""Yes""}",implicit,Speaker Aware,10,Yes,1,16,Speaker Aware,12,10,1,1,NA,10,9,11,9.5,TRUE,1,high
573,59529,2821,survey-multi-choice,9,446643,group2,5a,"{""Q0"":""No""}",implicit,Speaker Aware,11,No,0,4,Speaker Aware,12,10,1,1,NA,10,9,11,9.5,TRUE,1,high
574,59529,2172,survey-multi-choice,17,536521,group2,5a,"{""Q0"":""No""}",implicit,Speaker Aware,16,No,0,8,Speaker Aware,12,10,1,1,NA,10,9,11,9.5,TRUE,1,high
575,59529,2618,survey-multi-choice,13,490967,group2,5a,"{""Q0"":""No""}",explicit,Speaker Aware,1,No,0,6,Speaker Aware,12,10,1,1,NA,10,9,11,9.5,TRUE,1,high
576,59529,1846,survey-multi-choice,15,512853,group2,5a,"{""Q0"":""Yes""}",explicit,Speaker Unaware,13,Yes,1,7,Speaker Unaware,12,10,1,1,NA,10,9,11,9.5,TRUE,1,high
577,59592,3453,survey-multi-choice,5,102304,group2,5a,"{""Q0"":""No""}",explicit,Speaker Aware,3,No,0,2,Speaker Aware,4,3,1,0,0,10,10,3.5,10,FALSE,0,high
578,59592,6537,survey-multi-choice,7,137215,group2,5a,"{""Q0"":""No""}",explicit,Speaker Aware,4,No,0,3,Speaker Aware,4,3,1,0,0,10,10,3.5,10,FALSE,0,high
579,59592,3211,survey-multi-choice,9,194704,group2,5a,"{""Q0"":""No""}",implicit,Speaker Unaware,8,No,0,4,Speaker Unaware,4,3,1,0,0,10,10,3.5,10,FALSE,0,high
580,59592,1966,survey-multi-choice,33,478252,group2,5a,"{""Q0"":""No""}",implicit,Speaker Unaware,2,No,0,16,Speaker Unaware,4,3,1,0,0,10,10,3.5,10,FALSE,0,high
581,59592,2821,survey-multi-choice,17,288246,group2,5a,"{""Q0"":""No""}",explicit,Speaker Unaware,9,No,0,8,Speaker Unaware,4,3,1,0,0,10,10,3.5,10,FALSE,0,high
582,59592,2008,survey-multi-choice,19,330723,group2,5a,"{""Q0"":""Yes""}",explicit,Speaker Unaware,15,Yes,1,9,Speaker Unaware,4,3,1,0,0,10,10,3.5,10,FALSE,0,high
583,59592,2324,survey-multi-choice,21,354393,group2,5a,"{""Q0"":""Yes""}",implicit,Speaker Unaware,5,Yes,1,10,Speaker Unaware,4,3,1,0,0,10,10,3.5,10,FALSE,0,high
584,59592,1846,survey-multi-choice,23,375840,group2,5a,"{""Q0"":""No""}",explicit,Speaker Aware,1,No,0,11,Speaker Aware,4,3,1,0,0,10,10,3.5,10,FALSE,0,high
585,59592,1040,survey-multi-choice,25,401382,group2,5a,"{""Q0"":""No""}",explicit,Speaker Unaware,13,No,0,12,Speaker Unaware,4,3,1,0,0,10,10,3.5,10,FALSE,0,high
586,59592,1666,survey-multi-choice,27,417013,group2,5a,"{""Q0"":""Yes""}",explicit,Speaker Aware,6,Yes,1,13,Speaker Aware,4,3,1,0,0,10,10,3.5,10,FALSE,0,high
587,59592,2585,survey-multi-choice,29,437187,group2,5a,"{""Q0"":""No""}",implicit,Speaker Aware,11,No,0,14,Speaker Aware,4,3,1,0,0,10,10,3.5,10,FALSE,0,high
588,59592,2314,survey-multi-choice,31,460929,group2,5a,"{""Q0"":""Yes""}",explicit,Speaker Unaware,12,Yes,1,15,Speaker Unaware,4,3,1,0,0,10,10,3.5,10,FALSE,0,high
589,59592,22360,survey-multi-choice,3,85940,group2,5a,"{""Q0"":""Yes""}",implicit,Speaker Aware,16,Yes,1,1,Speaker Aware,4,3,1,0,0,10,10,3.5,10,FALSE,0,high
590,59592,1650,survey-multi-choice,13,241054,group2,5a,"{""Q0"":""Yes""}",implicit,Speaker Aware,10,Yes,1,6,Speaker Aware,4,3,1,0,0,10,10,3.5,10,FALSE,0,high
591,59592,2202,survey-multi-choice,15,268292,group2,5a,"{""Q0"":""No""}",implicit,Speaker Unaware,7,No,0,7,Speaker Unaware,4,3,1,0,0,10,10,3.5,10,FALSE,0,high
592,59592,3210,survey-multi-choice,11,221472,group2,5a,"{""Q0"":""No""}",implicit,Speaker Aware,14,No,0,5,Speaker Aware,4,3,1,0,0,10,10,3.5,10,FALSE,0,high
593,59906,9961,survey-multi-choice,13,320339,group3,5a,"{""Q0"":""No""}",implicit,Speaker Aware,8,No,0,6,Speaker Aware,7,6,0,0,NA,9,7,6.5,8,TRUE,0,low
594,59906,3699,survey-multi-choice,11,267642,group3,5a,"{""Q0"":""No""}",implicit,Speaker Aware,7,No,0,5,Speaker Aware,7,6,0,0,NA,9,7,6.5,8,TRUE,0,low
595,59906,7776,survey-multi-choice,3,106982,group3,5a,"{""Q0"":""No""}",explicit,Speaker Aware,12,No,0,1,Speaker Aware,7,6,0,0,NA,9,7,6.5,8,TRUE,0,low
596,59906,3232,survey-multi-choice,17,398591,group3,5a,"{""Q0"":""No""}",explicit,Speaker Unaware,4,No,0,8,Speaker Unaware,7,6,0,0,NA,9,7,6.5,8,TRUE,0,low
597,59906,3707,survey-multi-choice,19,464576,group3,5a,"{""Q0"":""Yes""}",explicit,Speaker Unaware,3,Yes,1,9,Speaker Unaware,7,6,0,0,NA,9,7,6.5,8,TRUE,0,low
598,59906,6574,survey-multi-choice,9,231839,group3,5a,"{""Q0"":""Yes""}",explicit,Speaker Aware,15,Yes,1,4,Speaker Aware,7,6,0,0,NA,9,7,6.5,8,TRUE,0,low
599,59906,2501,survey-multi-choice,33,685829,group3,5a,"{""Q0"":""Yes""}",implicit,Speaker Unaware,11,Yes,1,16,Speaker Unaware,7,6,0,0,NA,9,7,6.5,8,TRUE,0,low
600,59906,3342,survey-multi-choice,15,356463,group3,5a,"{""Q0"":""Yes""}",implicit,Speaker Unaware,10,Yes,1,7,Speaker Unaware,7,6,0,0,NA,9,7,6.5,8,TRUE,0,low
601,59906,3856,survey-multi-choice,21,505975,group3,5a,"{""Q0"":""No""}",explicit,Speaker Aware,13,No,0,10,Speaker Aware,7,6,0,0,NA,9,7,6.5,8,TRUE,0,low
602,59906,4041,survey-multi-choice,23,537355,group3,5a,"{""Q0"":""No""}",implicit,Speaker Unaware,16,No,0,11,Speaker Unaware,7,6,0,0,NA,9,7,6.5,8,TRUE,0,low
603,59906,3511,survey-multi-choice,7,194205,group3,5a,"{""Q0"":""No""}",explicit,Speaker Unaware,1,No,0,3,Speaker Unaware,7,6,0,0,NA,9,7,6.5,8,TRUE,0,low
604,59906,2359,survey-multi-choice,25,562492,group3,5a,"{""Q0"":""Yes""}",explicit,Speaker Unaware,6,Yes,1,12,Speaker Unaware,7,6,0,0,NA,9,7,6.5,8,TRUE,0,low
605,59906,3241,survey-multi-choice,27,604731,group3,5a,"{""Q0"":""No""}",implicit,Speaker Aware,5,No,0,13,Speaker Aware,7,6,0,0,NA,9,7,6.5,8,TRUE,0,low
606,59906,13452,survey-multi-choice,5,157495,group3,5a,"{""Q0"":""No""}",implicit,Speaker Unaware,14,No,0,2,Speaker Unaware,7,6,0,0,NA,9,7,6.5,8,TRUE,0,low
607,59906,2430,survey-multi-choice,29,625609,group3,5a,"{""Q0"":""No""}",implicit,Speaker Aware,2,No,0,14,Speaker Aware,7,6,0,0,NA,9,7,6.5,8,TRUE,0,low
608,59906,3409,survey-multi-choice,31,653679,group3,5a,"{""Q0"":""No""}",explicit,Speaker Aware,9,No,0,15,Speaker Aware,7,6,0,0,NA,9,7,6.5,8,TRUE,0,low
609,59974,2062,survey-multi-choice,17,242677,group2,5a,"{""Q0"":""No""}",explicit,Speaker Aware,1,No,0,8,Speaker Aware,7,11,1,1,NA,8,7,9,7.5,TRUE,1,low
610,59974,4808,survey-multi-choice,19,267885,group2,5a,"{""Q0"":""No""}",explicit,Speaker Unaware,12,No,0,9,Speaker Unaware,7,11,1,1,NA,8,7,9,7.5,TRUE,1,low
611,59974,2326,survey-multi-choice,21,291373,group2,5a,"{""Q0"":""No""}",implicit,Speaker Aware,10,No,0,10,Speaker Aware,7,11,1,1,NA,8,7,9,7.5,TRUE,1,low
612,59974,3312,survey-multi-choice,11,170350,group2,5a,"{""Q0"":""No""}",implicit,Speaker Aware,16,No,0,5,Speaker Aware,7,11,1,1,NA,8,7,9,7.5,TRUE,1,low
613,59974,3199,survey-multi-choice,13,196173,group2,5a,"{""Q0"":""No""}",implicit,Speaker Unaware,2,No,0,6,Speaker Unaware,7,11,1,1,NA,8,7,9,7.5,TRUE,1,low
614,59974,2639,survey-multi-choice,15,219725,group2,5a,"{""Q0"":""No""}",implicit,Speaker Aware,14,No,0,7,Speaker Aware,7,11,1,1,NA,8,7,9,7.5,TRUE,1,low
615,59974,3535,survey-multi-choice,9,144349,group2,5a,"{""Q0"":""No""}",implicit,Speaker Unaware,7,No,0,4,Speaker Unaware,7,11,1,1,NA,8,7,9,7.5,TRUE,1,low
616,59974,2102,survey-multi-choice,33,398397,group2,5a,"{""Q0"":""No""}",explicit,Speaker Aware,3,No,0,16,Speaker Aware,7,11,1,1,NA,8,7,9,7.5,TRUE,1,low
617,59974,2502,survey-multi-choice,5,75732,group2,5a,"{""Q0"":""No""}",explicit,Speaker Unaware,13,No,0,2,Speaker Unaware,7,11,1,1,NA,8,7,9,7.5,TRUE,1,low
618,59974,3230,survey-multi-choice,25,331302,group2,5a,"{""Q0"":""No""}",implicit,Speaker Aware,11,No,0,12,Speaker Aware,7,11,1,1,NA,8,7,9,7.5,TRUE,1,low
619,59974,6847,survey-multi-choice,7,121974,group2,5a,"{""Q0"":""No""}",explicit,Speaker Unaware,9,No,0,3,Speaker Unaware,7,11,1,1,NA,8,7,9,7.5,TRUE,1,low
620,59974,1966,survey-multi-choice,23,314413,group2,5a,"{""Q0"":""No""}",explicit,Speaker Unaware,15,No,0,11,Speaker Unaware,7,11,1,1,NA,8,7,9,7.5,TRUE,1,low
621,59974,7899,survey-multi-choice,3,48640,group2,5a,"{""Q0"":""No""}",explicit,Speaker Aware,4,No,0,1,Speaker Aware,7,11,1,1,NA,8,7,9,7.5,TRUE,1,low
622,59974,1844,survey-multi-choice,27,349029,group2,5a,"{""Q0"":""No""}",implicit,Speaker Unaware,8,No,0,13,Speaker Unaware,7,11,1,1,NA,8,7,9,7.5,TRUE,1,low
623,59974,1966,survey-multi-choice,31,378749,group2,5a,"{""Q0"":""No""}",implicit,Speaker Unaware,5,No,0,15,Speaker Unaware,7,11,1,1,NA,8,7,9,7.5,TRUE,1,low
624,59974,2472,survey-multi-choice,29,362126,group2,5a,"{""Q0"":""No""}",explicit,Speaker Aware,6,No,0,14,Speaker Aware,7,11,1,1,NA,8,7,9,7.5,TRUE,1,low
625,61164,2394,survey-multi-choice,9,748216,group1,5a,"{""Q0"":""Yes""}",explicit,Speaker Unaware,16,Yes,1,4,Speaker Unaware,13,13,0,0,NA,9,8,13,8.5,TRUE,0,low
626,61164,2819,survey-multi-choice,7,712237,group1,5a,"{""Q0"":""No""}",explicit,Speaker Aware,5,No,0,3,Speaker Aware,13,13,0,0,NA,9,8,13,8.5,TRUE,0,low
627,61164,3122,survey-multi-choice,5,689083,group1,5a,"{""Q0"":""No""}",implicit,Speaker Aware,15,No,0,2,Speaker Aware,13,13,0,0,NA,9,8,13,8.5,TRUE,0,low
628,61164,1060,survey-multi-choice,15,832646,group1,5a,"{""Q0"":""Yes""}",implicit,Speaker Unaware,4,Yes,1,7,Speaker Unaware,13,13,0,0,NA,9,8,13,8.5,TRUE,0,low
629,61164,1592,survey-multi-choice,11,786220,group1,5a,"{""Q0"":""No""}",implicit,Speaker Unaware,3,No,0,5,Speaker Unaware,13,13,0,0,NA,9,8,13,8.5,TRUE,0,low
630,61164,1424,survey-multi-choice,13,820169,group1,5a,"{""Q0"":""Yes""}",implicit,Speaker Aware,9,Yes,1,6,Speaker Aware,13,13,0,0,NA,9,8,13,8.5,TRUE,0,low
631,61164,1873,survey-multi-choice,25,1021485,group1,5a,"{""Q0"":""No""}",implicit,Speaker Unaware,6,No,0,12,Speaker Unaware,13,13,0,0,NA,9,8,13,8.5,TRUE,0,low
