,subject,X,rt,trial_type,trial_index,time_elapsed,internal_node_id,group,assignment,responses,knowledge,stimType,stimNum,answer,numeric_code,Gender,Native_Speaker,Age,order,Condition,exp_inf_1,exp_inf_2,spon_1,spon_2,spon_3,rc_1,rc_2,exp_inf_mean,rc_mean,spon_agree,spon_true,rc_bins_1
1,635,2989,2388,survey-multi-choice,7,138081,0.0-4.0-1.0,group2,5a,"{""Q0"":""Yes""}",explicit,Speaker Unaware,9,Yes,1,Male,Yes,31,3,Speaker Unaware,7,8,0,0,NA,8,9,7.5,8.5,TRUE,0,low
2,635,2985,5320,survey-multi-choice,3,56648,0.0-2.0-1.0,group2,5a,"{""Q0"":""No""}",explicit,Speaker Aware,1,No,0,Male,Yes,31,1,Speaker Aware,7,8,0,0,NA,8,9,7.5,8.5,TRUE,0,low
3,635,2987,3948,survey-multi-choice,5,112109,0.0-3.0-1.0,group2,5a,"{""Q0"":""Yes""}",implicit,Speaker Unaware,5,Yes,1,Male,Yes,31,2,Speaker Unaware,7,8,0,0,NA,8,9,7.5,8.5,TRUE,0,low
4,635,2997,1680,survey-multi-choice,15,297554,0.0-8.0-1.0,group2,5a,"{""Q0"":""Yes""}",explicit,Speaker Unaware,15,Yes,1,Male,Yes,31,7,Speaker Unaware,7,8,0,0,NA,8,9,7.5,8.5,TRUE,0,low
5,635,2999,1264,survey-multi-choice,17,331516,0.0-9.0-1.0,group2,5a,"{""Q0"":""Yes""}",implicit,Speaker Aware,10,Yes,1,Male,Yes,31,8,Speaker Aware,7,8,0,0,NA,8,9,7.5,8.5,TRUE,0,low
6,635,3001,3348,survey-multi-choice,19,336940,0.0-10.0-1.0,group2,5a,"{""Q0"":""Yes""}",implicit,Speaker Aware,16,Yes,1,Male,Yes,31,9,Speaker Aware,7,8,0,0,NA,8,9,7.5,8.5,TRUE,0,low
7,635,3003,1254,survey-multi-choice,21,411548,0.0-11.0-1.0,group2,5a,"{""Q0"":""Yes""}",implicit,Speaker Unaware,8,Yes,1,Male,Yes,31,10,Speaker Unaware,7,8,0,0,NA,8,9,7.5,8.5,TRUE,0,low
8,635,3005,1640,survey-multi-choice,23,434574,0.0-12.0-1.0,group2,5a,"{""Q0"":""Yes""}",implicit,Speaker Aware,11,Yes,1,Male,Yes,31,11,Speaker Aware,7,8,0,0,NA,8,9,7.5,8.5,TRUE,0,low
9,635,3007,7171,survey-multi-choice,25,443886,0.0-13.0-1.0,group2,5a,"{""Q0"":""No""}",implicit,Speaker Unaware,2,No,0,Male,Yes,31,12,Speaker Unaware,7,8,0,0,NA,8,9,7.5,8.5,TRUE,0,low
10,635,3009,1294,survey-multi-choice,27,512882,0.0-14.0-1.0,group2,5a,"{""Q0"":""Yes""}",explicit,Speaker Unaware,12,Yes,1,Male,Yes,31,13,Speaker Unaware,7,8,0,0,NA,8,9,7.5,8.5,TRUE,0,low
11,635,3011,1321,survey-multi-choice,29,550805,0.0-15.0-1.0,group2,5a,"{""Q0"":""No""}",explicit,Speaker Aware,4,No,0,Male,Yes,31,14,Speaker Aware,7,8,0,0,NA,8,9,7.5,8.5,TRUE,0,low
12,635,3013,1593,survey-multi-choice,31,597638,0.0-16.0-1.0,group2,5a,"{""Q0"":""No""}",explicit,Speaker Aware,6,No,0,Male,Yes,31,15,Speaker Aware,7,8,0,0,NA,8,9,7.5,8.5,TRUE,0,low
13,635,3015,1579,survey-multi-choice,33,621537,0.0-17.0-1.0,group2,5a,"{""Q0"":""Yes""}",explicit,Speaker Aware,3,Yes,1,Male,Yes,31,16,Speaker Aware,7,8,0,0,NA,8,9,7.5,8.5,TRUE,0,low
14,635,2991,1797,survey-multi-choice,9,199573,0.0-5.0-1.0,group2,5a,"{""Q0"":""No""}",implicit,Speaker Unaware,7,No,0,Male,Yes,31,4,Speaker Unaware,7,8,0,0,NA,8,9,7.5,8.5,TRUE,0,low
15,635,2993,1322,survey-multi-choice,11,226062,0.0-6.0-1.0,group2,5a,"{""Q0"":""Yes""}",explicit,Speaker Unaware,13,Yes,1,Male,Yes,31,5,Speaker Unaware,7,8,0,0,NA,8,9,7.5,8.5,TRUE,0,low
16,635,2995,1293,survey-multi-choice,13,257816,0.0-7.0-1.0,group2,5a,"{""Q0"":""No""}",implicit,Speaker Aware,14,No,0,Male,Yes,31,6,Speaker Aware,7,8,0,0,NA,8,9,7.5,8.5,TRUE,0,low
17,703,3117,5267,survey-multi-choice,9,253289,0.0-5.0-1.0,group2,5a,"{""Q0"":""No""}",implicit,Speaker Unaware,2,No,0,Male,Yes,42,4,Speaker Unaware,11,11,1,1,NA,10,10,11,10,TRUE,1,high
18,703,3111,6751,survey-multi-choice,3,122999,0.0-2.0-1.0,group2,5a,"{""Q0"":""Yes""}",implicit,Speaker Unaware,8,Yes,1,Male,Yes,42,1,Speaker Unaware,11,11,1,1,NA,10,10,11,10,TRUE,1,high
19,703,3113,3498,survey-multi-choice,5,159653,0.0-3.0-1.0,group2,5a,"{""Q0"":""No""}",implicit,Speaker Unaware,7,No,0,Male,Yes,42,2,Speaker Unaware,11,11,1,1,NA,10,10,11,10,TRUE,1,high
20,703,3115,8791,survey-multi-choice,7,209617,0.0-4.0-1.0,group2,5a,"{""Q0"":""No""}",implicit,Speaker Unaware,5,No,0,Male,Yes,42,3,Speaker Unaware,11,11,1,1,NA,10,10,11,10,TRUE,1,high
21,703,3125,3130,survey-multi-choice,17,375138,0.0-9.0-1.0,group2,5a,"{""Q0"":""No""}",explicit,Speaker Aware,1,No,0,Male,Yes,42,8,Speaker Aware,11,11,1,1,NA,10,10,11,10,TRUE,1,high
22,703,3119,4662,survey-multi-choice,11,289004,0.0-6.0-1.0,group2,5a,"{""Q0"":""Yes""}",explicit,Speaker Unaware,12,Yes,1,Male,Yes,42,5,Speaker Unaware,11,11,1,1,NA,10,10,11,10,TRUE,1,high
23,703,3121,3464,survey-multi-choice,13,317318,0.0-7.0-1.0,group2,5a,"{""Q0"":""No""}",implicit,Speaker Aware,11,No,0,Male,Yes,42,6,Speaker Aware,11,11,1,1,NA,10,10,11,10,TRUE,1,high
24,703,3123,4430,survey-multi-choice,15,338473,0.0-8.0-1.0,group2,5a,"{""Q0"":""Yes""}",explicit,Speaker Aware,6,Yes,1,Male,Yes,42,7,Speaker Aware,11,11,1,1,NA,10,10,11,10,TRUE,1,high
25,703,3131,2973,survey-multi-choice,23,478612,0.0-12.0-1.0,group2,5a,"{""Q0"":""No""}",explicit,Speaker Aware,4,No,0,Male,Yes,42,11,Speaker Aware,11,11,1,1,NA,10,10,11,10,TRUE,1,high
26,703,3133,3631,survey-multi-choice,25,502902,0.0-13.0-1.0,group2,5a,"{""Q0"":""Yes""}",explicit,Speaker Unaware,15,Yes,1,Male,Yes,42,12,Speaker Unaware,11,11,1,1,NA,10,10,11,10,TRUE,1,high
27,703,3135,2645,survey-multi-choice,27,537555,0.0-14.0-1.0,group2,5a,"{""Q0"":""No""}",explicit,Speaker Aware,3,No,0,Male,Yes,42,13,Speaker Aware,11,11,1,1,NA,10,10,11,10,TRUE,1,high
28,703,3137,2954,survey-multi-choice,29,567225,0.0-15.0-1.0,group2,5a,"{""Q0"":""Yes""}",explicit,Speaker Unaware,9,Yes,1,Male,Yes,42,14,Speaker Unaware,11,11,1,1,NA,10,10,11,10,TRUE,1,high
29,703,3139,3563,survey-multi-choice,31,600834,0.0-16.0-1.0,group2,5a,"{""Q0"":""Yes""}",explicit,Speaker Unaware,13,Yes,1,Male,Yes,42,15,Speaker Unaware,11,11,1,1,NA,10,10,11,10,TRUE,1,high
30,703,3141,3272,survey-multi-choice,33,627771,0.0-17.0-1.0,group2,5a,"{""Q0"":""No""}",implicit,Speaker Aware,14,No,0,Male,Yes,42,16,Speaker Aware,11,11,1,1,NA,10,10,11,10,TRUE,1,high
31,703,3127,5609,survey-multi-choice,19,420296,0.0-10.0-1.0,group2,5a,"{""Q0"":""Yes""}",implicit,Speaker Aware,16,Yes,1,Male,Yes,42,9,Speaker Aware,11,11,1,1,NA,10,10,11,10,TRUE,1,high
32,703,3129,3520,survey-multi-choice,21,450863,0.0-11.0-1.0,group2,5a,"{""Q0"":""Yes""}",implicit,Speaker Aware,10,Yes,1,Male,Yes,42,10,Speaker Aware,11,11,1,1,NA,10,10,11,10,TRUE,1,high
33,766,1893,10793,survey-multi-choice,3,106182,0.0-2.0-1.0,group3,5a,"{""Q0"":""No""}",explicit,Speaker Aware,13,No,0,Male,Yes,33,1,Speaker Aware,11,10,0,0,NA,9,10,10.5,9.5,TRUE,0,high
34,766,1905,3210,survey-multi-choice,15,416745,0.0-8.0-1.0,group3,5a,"{""Q0"":""No""}",explicit,Speaker Aware,12,No,0,Male,Yes,33,7,Speaker Aware,11,10,0,0,NA,9,10,10.5,9.5,TRUE,0,high
35,766,1899,5010,survey-multi-choice,9,262139,0.0-5.0-1.0,group3,5a,"{""Q0"":""No""}",explicit,Speaker Aware,15,No,0,Male,Yes,33,4,Speaker Aware,11,10,0,0,NA,9,10,10.5,9.5,TRUE,0,high
36,766,1901,7953,survey-multi-choice,11,318697,0.0-6.0-1.0,group3,5a,"{""Q0"":""No""}",explicit,Speaker Unaware,3,No,0,Male,Yes,33,5,Speaker Unaware,11,10,0,0,NA,9,10,10.5,9.5,TRUE,0,high
37,766,1903,4221,survey-multi-choice,13,380799,0.0-7.0-1.0,group3,5a,"{""Q0"":""No""}",explicit,Speaker Unaware,1,No,0,Male,Yes,33,6,Speaker Unaware,11,10,0,0,NA,9,10,10.5,9.5,TRUE,0,high
38,766,1919,4481,survey-multi-choice,29,846406,0.0-15.0-1.0,group3,5a,"{""Q0"":""Yes""}",explicit,Speaker Unaware,6,Yes,1,Male,Yes,33,14,Speaker Unaware,11,10,0,0,NA,9,10,10.5,9.5,TRUE,0,high
39,766,1895,3135,survey-multi-choice,5,136142,0.0-3.0-1.0,group3,5a,"{""Q0"":""Yes""}",implicit,Speaker Unaware,16,Yes,1,Male,Yes,33,2,Speaker Unaware,11,10,0,0,NA,9,10,10.5,9.5,TRUE,0,high
40,766,1897,5173,survey-multi-choice,7,214646,0.0-4.0-1.0,group3,5a,"{""Q0"":""Yes""}",implicit,Speaker Unaware,10,Yes,1,Male,Yes,33,3,Speaker Unaware,11,10,0,0,NA,9,10,10.5,9.5,TRUE,0,high
41,766,1907,5599,survey-multi-choice,17,479739,0.0-9.0-1.0,group3,5a,"{""Q0"":""Yes""}",implicit,Speaker Unaware,14,Yes,1,Male,Yes,33,8,Speaker Unaware,11,10,0,0,NA,9,10,10.5,9.5,TRUE,0,high
42,766,1909,8507,survey-multi-choice,19,568028,0.0-10.0-1.0,group3,5a,"{""Q0"":""No""}",implicit,Speaker Aware,2,No,0,Male,Yes,33,9,Speaker Aware,11,10,0,0,NA,9,10,10.5,9.5,TRUE,0,high
43,766,1911,7593,survey-multi-choice,21,612830,0.0-11.0-1.0,group3,5a,"{""Q0"":""No""}",implicit,Speaker Aware,7,No,0,Male,Yes,33,10,Speaker Aware,11,10,0,0,NA,9,10,10.5,9.5,TRUE,0,high
44,766,1913,8533,survey-multi-choice,23,676588,0.0-12.0-1.0,group3,5a,"{""Q0"":""No""}",implicit,Speaker Aware,5,No,0,Male,Yes,33,11,Speaker Aware,11,10,0,0,NA,9,10,10.5,9.5,TRUE,0,high
45,766,1915,5574,survey-multi-choice,25,753794,0.0-13.0-1.0,group3,5a,"{""Q0"":""No""}",explicit,Speaker Aware,9,No,0,Male,Yes,33,12,Speaker Aware,11,10,0,0,NA,9,10,10.5,9.5,TRUE,0,high
46,766,1917,6822,survey-multi-choice,27,817868,0.0-14.0-1.0,group3,5a,"{""Q0"":""No""}",implicit,Speaker Unaware,11,No,0,Male,Yes,33,13,Speaker Unaware,11,10,0,0,NA,9,10,10.5,9.5,TRUE,0,high
47,766,1921,4368,survey-multi-choice,31,921007,0.0-16.0-1.0,group3,5a,"{""Q0"":""Yes""}",implicit,Speaker Aware,8,Yes,1,Male,Yes,33,15,Speaker Aware,11,10,0,0,NA,9,10,10.5,9.5,TRUE,0,high
48,766,1923,17784,survey-multi-choice,33,976190,0.0-17.0-1.0,group3,5a,"{""Q0"":""No""}",explicit,Speaker Unaware,4,No,0,Male,Yes,33,16,Speaker Unaware,11,10,0,0,NA,9,10,10.5,9.5,TRUE,0,high
49,5922,1039,2746,survey-multi-choice,31,470993,0.0-16.0-1.0,group1,5a,"{""Q0"":""Yes""}",explicit,Speaker Unaware,10,Yes,1,Male,Yes,30,15,Speaker Unaware,4,5,0,0,NA,10,9,4.5,9.5,TRUE,0,high
50,5922,1029,4372,survey-multi-choice,21,268651,0.0-11.0-1.0,group1,5a,"{""Q0"":""Yes""}",explicit,Speaker Aware,5,Yes,1,Male,Yes,30,10,Speaker Aware,4,5,0,0,NA,10,9,4.5,9.5,TRUE,0,high
51,5922,1031,2667,survey-multi-choice,23,285700,0.0-12.0-1.0,group1,5a,"{""Q0"":""No""}",explicit,Speaker Unaware,14,No,0,Male,Yes,30,11,Speaker Unaware,4,5,0,0,NA,10,9,4.5,9.5,TRUE,0,high
52,5922,1033,23190,survey-multi-choice,25,318951,0.0-13.0-1.0,group1,5a,"{""Q0"":""Yes""}",implicit,Speaker Unaware,1,Yes,1,Male,Yes,30,12,Speaker Unaware,4,5,0,0,NA,10,9,4.5,9.5,TRUE,0,high
53,5922,1041,56052,survey-multi-choice,33,674335,0.0-17.0-1.0,group1,5a,"{""Q0"":""No""}",explicit,Speaker Unaware,16,No,0,Male,Yes,30,16,Speaker Unaware,4,5,0,0,NA,10,9,4.5,9.5,TRUE,0,high
54,5922,1037,80718,survey-multi-choice,29,465562,0.0-15.0-1.0,group1,5a,"{""Q0"":""Yes""}",implicit,Speaker Unaware,4,Yes,1,Male,Yes,30,14,Speaker Unaware,4,5,0,0,NA,10,9,4.5,9.5,TRUE,0,high
55,5922,1027,26931,survey-multi-choice,19,261088,0.0-10.0-1.0,group1,5a,"{""Q0"":""No""}",implicit,Speaker Aware,13,No,0,Male,Yes,30,9,Speaker Aware,4,5,0,0,NA,10,9,4.5,9.5,TRUE,0,high
56,5922,1025,3322,survey-multi-choice,17,231232,0.0-9.0-1.0,group1,5a,"{""Q0"":""No""}",explicit,Speaker Aware,8,No,0,Male,Yes,30,8,Speaker Aware,4,5,0,0,NA,10,9,4.5,9.5,TRUE,0,high
57,5922,1035,3633,survey-multi-choice,27,335187,0.0-14.0-1.0,group1,5a,"{""Q0"":""Yes""}",implicit,Speaker Aware,12,Yes,1,Male,Yes,30,13,Speaker Aware,4,5,0,0,NA,10,9,4.5,9.5,TRUE,0,high
58,5922,1011,4864,survey-multi-choice,3,41761,0.0-2.0-1.0,group1,5a,"{""Q0"":""No""}",implicit,Speaker Aware,15,No,0,Male,Yes,30,1,Speaker Aware,4,5,0,0,NA,10,9,4.5,9.5,TRUE,0,high
59,5922,1017,2728,survey-multi-choice,9,188585,0.0-5.0-1.0,group1,5a,"{""Q0"":""No""}",explicit,Speaker Unaware,11,No,0,Male,Yes,30,4,Speaker Unaware,4,5,0,0,NA,10,9,4.5,9.5,TRUE,0,high
60,5922,1013,2378,survey-multi-choice,5,81308,0.0-3.0-1.0,group1,5a,"{""Q0"":""No""}",implicit,Speaker Unaware,3,No,0,Male,Yes,30,2,Speaker Unaware,4,5,0,0,NA,10,9,4.5,9.5,TRUE,0,high
61,5922,1015,21014,survey-multi-choice,7,169921,0.0-4.0-1.0,group1,5a,"{""Q0"":""No""}",explicit,Speaker Aware,2,No,0,Male,Yes,30,3,Speaker Aware,4,5,0,0,NA,10,9,4.5,9.5,TRUE,0,high
62,5922,1023,3202,survey-multi-choice,15,225097,0.0-8.0-1.0,group1,5a,"{""Q0"":""No""}",implicit,Speaker Aware,9,No,0,Male,Yes,30,7,Speaker Aware,4,5,0,0,NA,10,9,4.5,9.5,TRUE,0,high
63,5922,1021,2186,survey-multi-choice,13,201121,0.0-7.0-1.0,group1,5a,"{""Q0"":""No""}",explicit,Speaker Aware,7,No,0,Male,Yes,30,6,Speaker Aware,4,5,0,0,NA,10,9,4.5,9.5,TRUE,0,high
64,5922,1019,1693,survey-multi-choice,11,194074,0.0-6.0-1.0,group1,5a,"{""Q0"":""Yes""}",implicit,Speaker Unaware,6,Yes,1,Male,Yes,30,5,Speaker Unaware,4,5,0,0,NA,10,9,4.5,9.5,TRUE,0,high
65,7226,1693,1346,survey-multi-choice,13,128907,0.0-7.0-1.0,group1,5a,"{""Q0"":""No""}",implicit,Speaker Unaware,1,No,0,Female,Yes,24,6,Speaker Unaware,5,8,1,0,1,8,8,6.5,8,FALSE,1,low
66,7226,1687,5123,survey-multi-choice,7,75398,0.0-4.0-1.0,group1,5a,"{""Q0"":""Yes""}",implicit,Speaker Unaware,3,Yes,1,Female,Yes,24,3,Speaker Unaware,5,8,1,0,1,8,8,6.5,8,FALSE,1,low
67,7226,1689,1326,survey-multi-choice,9,102184,0.0-5.0-1.0,group1,5a,"{""Q0"":""Yes""}",implicit,Speaker Aware,15,Yes,1,Female,Yes,24,4,Speaker Aware,5,8,1,0,1,8,8,6.5,8,FALSE,1,low
68,7226,1691,2475,survey-multi-choice,11,119210,0.0-6.0-1.0,group1,5a,"{""Q0"":""No""}",explicit,Speaker Unaware,11,No,0,Female,Yes,24,5,Speaker Unaware,5,8,1,0,1,8,8,6.5,8,FALSE,1,low
69,7226,1707,1335,survey-multi-choice,27,256867,0.0-14.0-1.0,group1,5a,"{""Q0"":""No""}",explicit,Speaker Aware,5,No,0,Female,Yes,24,13,Speaker Aware,5,8,1,0,1,8,8,6.5,8,FALSE,1,low
70,7226,1709,1447,survey-multi-choice,29,275376,0.0-15.0-1.0,group1,5a,"{""Q0"":""Yes""}",explicit,Speaker Unaware,10,Yes,1,Female,Yes,24,14,Speaker Unaware,5,8,1,0,1,8,8,6.5,8,FALSE,1,low
71,7226,1683,4938,survey-multi-choice,3,34048,0.0-2.0-1.0,group1,5a,"{""Q0"":""Yes""}",implicit,Speaker Unaware,6,Yes,1,Female,Yes,24,1,Speaker Unaware,5,8,1,0,1,8,8,6.5,8,FALSE,1,low
72,7226,1685,2256,survey-multi-choice,5,62992,0.0-3.0-1.0,group1,5a,"{""Q0"":""No""}",explicit,Speaker Aware,2,No,0,Female,Yes,24,2,Speaker Aware,5,8,1,0,1,8,8,6.5,8,FALSE,1,low
73,7226,1697,1507,survey-multi-choice,17,166144,0.0-9.0-1.0,group1,5a,"{""Q0"":""Yes""}",explicit,Speaker Unaware,14,Yes,1,Female,Yes,24,8,Speaker Unaware,5,8,1,0,1,8,8,6.5,8,FALSE,1,low
74,7226,1699,1585,survey-multi-choice,19,180742,0.0-10.0-1.0,group1,5a,"{""Q0"":""No""}",implicit,Speaker Aware,13,No,0,Female,Yes,24,9,Speaker Aware,5,8,1,0,1,8,8,6.5,8,FALSE,1,low
75,7226,1701,1449,survey-multi-choice,21,194012,0.0-11.0-1.0,group1,5a,"{""Q0"":""Yes""}",implicit,Speaker Unaware,4,Yes,1,Female,Yes,24,10,Speaker Unaware,5,8,1,0,1,8,8,6.5,8,FALSE,1,low
76,7226,1695,2553,survey-multi-choice,15,152344,0.0-8.0-1.0,group1,5a,"{""Q0"":""No""}",explicit,Speaker Aware,7,No,0,Female,Yes,24,7,Speaker Aware,5,8,1,0,1,8,8,6.5,8,FALSE,1,low
77,7226,1705,2100,survey-multi-choice,25,234505,0.0-13.0-1.0,group1,5a,"{""Q0"":""No""}",explicit,Speaker Aware,8,No,0,Female,Yes,24,12,Speaker Aware,5,8,1,0,1,8,8,6.5,8,FALSE,1,low
78,7226,1703,1552,survey-multi-choice,23,211206,0.0-12.0-1.0,group1,5a,"{""Q0"":""No""}",implicit,Speaker Aware,12,No,0,Female,Yes,24,11,Speaker Aware,5,8,1,0,1,8,8,6.5,8,FALSE,1,low
79,7226,1713,970,survey-multi-choice,33,310397,0.0-17.0-1.0,group1,5a,"{""Q0"":""Yes""}",explicit,Speaker Unaware,16,Yes,1,Female,Yes,24,16,Speaker Unaware,5,8,1,0,1,8,8,6.5,8,FALSE,1,low
80,7226,1711,1295,survey-multi-choice,31,293556,0.0-16.0-1.0,group1,5a,"{""Q0"":""No""}",implicit,Speaker Aware,9,No,0,Female,Yes,24,15,Speaker Aware,5,8,1,0,1,8,8,6.5,8,FALSE,1,low
81,7329,1779,2070,survey-multi-choice,15,110319,0.0-8.0-1.0,group1,5a,"{""Q0"":""Yes""}",explicit,Speaker Unaware,10,Yes,1,Female,Yes,28,7,Speaker Unaware,0,0,0,0,NA,2,2,0,2,TRUE,0,low
82,7329,1781,3123,survey-multi-choice,17,118397,0.0-9.0-1.0,group1,5a,"{""Q0"":""Yes""}",explicit,Speaker Aware,2,Yes,1,Female,Yes,28,8,Speaker Aware,0,0,0,0,NA,2,2,0,2,TRUE,0,low
83,7329,1783,2542,survey-multi-choice,19,123949,0.0-10.0-1.0,group1,5a,"{""Q0"":""Yes""}",implicit,Speaker Unaware,6,Yes,1,Female,Yes,28,9,Speaker Unaware,0,0,0,0,NA,2,2,0,2,TRUE,0,low
84,7329,1789,3117,survey-multi-choice,25,143621,0.0-13.0-1.0,group1,5a,"{""Q0"":""Yes""}",implicit,Speaker Unaware,4,Yes,1,Female,Yes,28,12,Speaker Unaware,0,0,0,0,NA,2,2,0,2,TRUE,0,low
85,7329,1791,3589,survey-multi-choice,27,150483,0.0-14.0-1.0,group1,5a,"{""Q0"":""Yes""}",explicit,Speaker Unaware,16,Yes,1,Female,Yes,28,13,Speaker Unaware,0,0,0,0,NA,2,2,0,2,TRUE,0,low
86,7329,1793,3973,survey-multi-choice,29,157747,0.0-15.0-1.0,group1,5a,"{""Q0"":""Yes""}",explicit,Speaker Unaware,11,Yes,1,Female,Yes,28,14,Speaker Unaware,0,0,0,0,NA,2,2,0,2,TRUE,0,low
87,7329,1767,3899,survey-multi-choice,3,65755,0.0-2.0-1.0,group1,5a,"{""Q0"":""Yes""}",implicit,Speaker Aware,15,Yes,1,Female,Yes,28,1,Speaker Aware,0,0,0,0,NA,2,2,0,2,TRUE,0,low
88,7329,1795,2644,survey-multi-choice,31,163682,0.0-16.0-1.0,group1,5a,"{""Q0"":""Yes""}",implicit,Speaker Aware,9,Yes,1,Female,Yes,28,15,Speaker Aware,0,0,0,0,NA,2,2,0,2,TRUE,0,low
89,7329,1797,2343,survey-multi-choice,33,169562,0.0-17.0-1.0,group1,5a,"{""Q0"":""Yes""}",explicit,Speaker Unaware,14,Yes,1,Female,Yes,28,16,Speaker Unaware,0,0,0,0,NA,2,2,0,2,TRUE,0,low
90,7329,1773,4293,survey-multi-choice,9,90448,0.0-5.0-1.0,group1,5a,"{""Q0"":""Yes""}",implicit,Speaker Aware,12,Yes,1,Female,Yes,28,4,Speaker Aware,0,0,0,0,NA,2,2,0,2,TRUE,0,low
91,7329,1775,4948,survey-multi-choice,11,98775,0.0-6.0-1.0,group1,5a,"{""Q0"":""Yes""}",implicit,Speaker Aware,13,Yes,1,Female,Yes,28,5,Speaker Aware,0,0,0,0,NA,2,2,0,2,TRUE,0,low
92,7329,1777,2774,survey-multi-choice,13,105151,0.0-7.0-1.0,group1,5a,"{""Q0"":""Yes""}",implicit,Speaker Unaware,1,Yes,1,Female,Yes,28,6,Speaker Unaware,0,0,0,0,NA,2,2,0,2,TRUE,0,low
93,7329,1769,4311,survey-multi-choice,5,73529,0.0-3.0-1.0,group1,5a,"{""Q0"":""Yes""}",implicit,Speaker Unaware,3,Yes,1,Female,Yes,28,2,Speaker Unaware,0,0,0,0,NA,2,2,0,2,TRUE,0,low
94,7329,1771,4981,survey-multi-choice,7,82680,0.0-4.0-1.0,group1,5a,"{""Q0"":""Yes""}",explicit,Speaker Aware,5,Yes,1,Female,Yes,28,3,Speaker Aware,0,0,0,0,NA,2,2,0,2,TRUE,0,low
95,7329,1785,2820,survey-multi-choice,21,130340,0.0-11.0-1.0,group1,5a,"{""Q0"":""Yes""}",explicit,Speaker Aware,7,Yes,1,Female,Yes,28,10,Speaker Aware,0,0,0,0,NA,2,2,0,2,TRUE,0,low
96,7329,1787,2374,survey-multi-choice,23,136388,0.0-12.0-1.0,group1,5a,"{""Q0"":""Yes""}",explicit,Speaker Aware,8,Yes,1,Female,Yes,28,11,Speaker Aware,0,0,0,0,NA,2,2,0,2,TRUE,0,low
97,9604,3279,41156,survey-multi-choice,3,101121,0.0-2.0-1.0,group1,5a,"{""Q0"":""Yes""}",implicit,Speaker Aware,13,Yes,1,Female,Yes,31,1,Speaker Aware,9,11,1,1,NA,10,10,10,10,TRUE,1,high
98,9604,3281,3070,survey-multi-choice,5,123574,0.0-3.0-1.0,group1,5a,"{""Q0"":""No""}",explicit,Speaker Unaware,11,No,0,Female,Yes,31,2,Speaker Unaware,9,11,1,1,NA,10,10,10,10,TRUE,1,high
99,9604,3283,3309,survey-multi-choice,7,233447,0.0-4.0-1.0,group1,5a,"{""Q0"":""No""}",explicit,Speaker Aware,2,No,0,Female,Yes,31,3,Speaker Aware,9,11,1,1,NA,10,10,10,10,TRUE,1,high
100,9604,3285,2370,survey-multi-choice,9,268656,0.0-5.0-1.0,group1,5a,"{""Q0"":""Yes""}",explicit,Speaker Unaware,10,Yes,1,Female,Yes,31,4,Speaker Unaware,9,11,1,1,NA,10,10,10,10,TRUE,1,high
101,9604,3287,1849,survey-multi-choice,11,306851,0.0-6.0-1.0,group1,5a,"{""Q0"":""No""}",explicit,Speaker Aware,7,No,0,Female,Yes,31,5,Speaker Aware,9,11,1,1,NA,10,10,10,10,TRUE,1,high
102,9604,3289,2733,survey-multi-choice,13,338973,0.0-7.0-1.0,group1,5a,"{""Q0"":""No""}",explicit,Speaker Aware,8,No,0,Female,Yes,31,6,Speaker Aware,9,11,1,1,NA,10,10,10,10,TRUE,1,high
103,9604,3291,1800,survey-multi-choice,15,358985,0.0-8.0-1.0,group1,5a,"{""Q0"":""Yes""}",implicit,Speaker Unaware,6,Yes,1,Female,Yes,31,7,Speaker Unaware,9,11,1,1,NA,10,10,10,10,TRUE,1,high
104,9604,3293,1546,survey-multi-choice,17,383798,0.0-9.0-1.0,group1,5a,"{""Q0"":""Yes""}",implicit,Speaker Unaware,4,Yes,1,Female,Yes,31,8,Speaker Unaware,9,11,1,1,NA,10,10,10,10,TRUE,1,high
105,9604,3295,2704,survey-multi-choice,19,407879,0.0-10.0-1.0,group1,5a,"{""Q0"":""No""}",implicit,Speaker Aware,15,No,0,Female,Yes,31,9,Speaker Aware,9,11,1,1,NA,10,10,10,10,TRUE,1,high
106,9604,3297,1790,survey-multi-choice,21,450351,0.0-11.0-1.0,group1,5a,"{""Q0"":""Yes""}",implicit,Speaker Unaware,1,Yes,1,Female,Yes,31,10,Speaker Unaware,9,11,1,1,NA,10,10,10,10,TRUE,1,high
107,9604,3299,2791,survey-multi-choice,23,485974,0.0-12.0-1.0,group1,5a,"{""Q0"":""Yes""}",explicit,Speaker Aware,5,Yes,1,Female,Yes,31,11,Speaker Aware,9,11,1,1,NA,10,10,10,10,TRUE,1,high
108,9604,3301,1854,survey-multi-choice,25,516907,0.0-13.0-1.0,group1,5a,"{""Q0"":""Yes""}",implicit,Speaker Unaware,3,Yes,1,Female,Yes,31,12,Speaker Unaware,9,11,1,1,NA,10,10,10,10,TRUE,1,high
109,9604,3303,1583,survey-multi-choice,27,527775,0.0-14.0-1.0,group1,5a,"{""Q0"":""Yes""}",implicit,Speaker Aware,9,Yes,1,Female,Yes,31,13,Speaker Aware,9,11,1,1,NA,10,10,10,10,TRUE,1,high
110,9604,3305,1389,survey-multi-choice,29,549842,0.0-15.0-1.0,group1,5a,"{""Q0"":""No""}",implicit,Speaker Aware,12,No,0,Female,Yes,31,14,Speaker Aware,9,11,1,1,NA,10,10,10,10,TRUE,1,high
111,9604,3307,1446,survey-multi-choice,31,572101,0.0-16.0-1.0,group1,5a,"{""Q0"":""Yes""}",explicit,Speaker Unaware,16,Yes,1,Female,Yes,31,15,Speaker Unaware,9,11,1,1,NA,10,10,10,10,TRUE,1,high
112,9604,3309,1303,survey-multi-choice,33,591573,0.0-17.0-1.0,group1,5a,"{""Q0"":""Yes""}",explicit,Speaker Unaware,14,Yes,1,Female,Yes,31,16,Speaker Unaware,9,11,1,1,NA,10,10,10,10,TRUE,1,high
113,10015,2553,3613,survey-multi-choice,33,1690862,0.0-17.0-1.0,group4,5a,"{""Q0"":""Yes""}",explicit,Speaker Unaware,8,Yes,1,Female,Yes,62,16,Speaker Unaware,11,11,1,1,NA,10,10,11,10,TRUE,1,high
114,10015,2527,5348,survey-multi-choice,7,966264,0.0-4.0-1.0,group4,5a,"{""Q0"":""No""}",implicit,Speaker Aware,1,No,0,Female,Yes,62,3,Speaker Aware,11,11,1,1,NA,10,10,11,10,TRUE,1,high
115,10015,2551,3977,survey-multi-choice,31,1629787,0.0-16.0-1.0,group4,5a,"{""Q0"":""No""}",explicit,Speaker Unaware,7,No,0,Female,Yes,62,15,Speaker Unaware,11,11,1,1,NA,10,10,11,10,TRUE,1,high
116,10015,2535,4212,survey-multi-choice,15,1183394,0.0-8.0-1.0,group4,5a,"{""Q0"":""Yes""}",implicit,Speaker Unaware,12,Yes,1,Female,Yes,62,7,Speaker Unaware,11,11,1,1,NA,10,10,11,10,TRUE,1,high
117,10015,2537,3146,survey-multi-choice,17,1232097,0.0-9.0-1.0,group4,5a,"{""Q0"":""Yes""}",implicit,Speaker Unaware,15,Yes,1,Female,Yes,62,8,Speaker Unaware,11,11,1,1,NA,10,10,11,10,TRUE,1,high
118,10015,2539,4844,survey-multi-choice,19,1294451,0.0-10.0-1.0,group4,5a,"{""Q0"":""Yes""}",implicit,Speaker Unaware,13,Yes,1,Female,Yes,62,9,Speaker Unaware,11,11,1,1,NA,10,10,11,10,TRUE,1,high
119,10015,2541,3650,survey-multi-choice,21,1380662,0.0-11.0-1.0,group4,5a,"{""Q0"":""Yes""}",implicit,Speaker Unaware,9,Yes,1,Female,Yes,62,10,Speaker Unaware,11,11,1,1,NA,10,10,11,10,TRUE,1,high
120,10015,2543,2963,survey-multi-choice,23,1425069,0.0-12.0-1.0,group4,5a,"{""Q0"":""No""}",explicit,Speaker Aware,11,No,0,Female,Yes,62,11,Speaker Aware,11,11,1,1,NA,10,10,11,10,TRUE,1,high
121,10015,2545,3339,survey-multi-choice,25,1476124,0.0-13.0-1.0,group4,5a,"{""Q0"":""Yes""}",explicit,Speaker Aware,10,Yes,1,Female,Yes,62,12,Speaker Aware,11,11,1,1,NA,10,10,11,10,TRUE,1,high
122,10015,2547,5939,survey-multi-choice,27,1527325,0.0-14.0-1.0,group4,5a,"{""Q0"":""No""}",explicit,Speaker Aware,14,No,0,Female,Yes,62,13,Speaker Aware,11,11,1,1,NA,10,10,11,10,TRUE,1,high
123,10015,2549,3692,survey-multi-choice,29,1579277,0.0-15.0-1.0,group4,5a,"{""Q0"":""No""}",implicit,Speaker Aware,4,No,0,Female,Yes,62,14,Speaker Aware,11,11,1,1,NA,10,10,11,10,TRUE,1,high
124,10015,2523,14652,survey-multi-choice,3,836103,0.0-2.0-1.0,group4,5a,"{""Q0"":""No""}",explicit,Speaker Unaware,2,No,0,Female,Yes,62,1,Speaker Unaware,11,11,1,1,NA,10,10,11,10,TRUE,1,high
125,10015,2525,7155,survey-multi-choice,5,904791,0.0-3.0-1.0,group4,5a,"{""Q0"":""Yes""}",explicit,Speaker Aware,16,Yes,1,Female,Yes,62,2,Speaker Aware,11,11,1,1,NA,10,10,11,10,TRUE,1,high
126,10015,2529,5731,survey-multi-choice,9,1052805,0.0-5.0-1.0,group4,5a,"{""Q0"":""Yes""}",explicit,Speaker Unaware,5,Yes,1,Female,Yes,62,4,Speaker Unaware,11,11,1,1,NA,10,10,11,10,TRUE,1,high
127,10015,2531,4373,survey-multi-choice,11,1118312,0.0-6.0-1.0,group4,5a,"{""Q0"":""Yes""}",implicit,Speaker Aware,3,Yes,1,Female,Yes,62,5,Speaker Aware,11,11,1,1,NA,10,10,11,10,TRUE,1,high
128,10015,2533,8657,survey-multi-choice,13,1166111,0.0-7.0-1.0,group4,5a,"{""Q0"":""Yes""}",implicit,Speaker Aware,6,Yes,1,Female,Yes,62,6,Speaker Aware,11,11,1,1,NA,10,10,11,10,TRUE,1,high
129,12153,2565,14433,survey-multi-choice,3,174283,0.0-2.0-1.0,group2,5a,"{""Q0"":""No""}",implicit,Speaker Unaware,8,No,0,Female,Yes,27,1,Speaker Unaware,14,14,1,0,1,10,10,14,10,FALSE,1,high
130,12153,2573,4171,survey-multi-choice,11,338009,0.0-6.0-1.0,group2,5a,"{""Q0"":""Yes""}",explicit,Speaker Aware,4,Yes,1,Female,Yes,27,5,Speaker Aware,14,14,1,0,1,10,10,14,10,FALSE,1,high
131,12153,2575,2701,survey-multi-choice,13,366130,0.0-7.0-1.0,group2,5a,"{""Q0"":""Yes""}",explicit,Speaker Unaware,9,Yes,1,Female,Yes,27,6,Speaker Unaware,14,14,1,0,1,10,10,14,10,FALSE,1,high
132,12153,2577,6884,survey-multi-choice,15,400470,0.0-8.0-1.0,group2,5a,"{""Q0"":""Yes""}",explicit,Speaker Unaware,13,Yes,1,Female,Yes,27,7,Speaker Unaware,14,14,1,0,1,10,10,14,10,FALSE,1,high
133,12153,2579,3051,survey-multi-choice,17,432151,0.0-9.0-1.0,group2,5a,"{""Q0"":""Yes""}",explicit,Speaker Aware,3,Yes,1,Female,Yes,27,8,Speaker Aware,14,14,1,0,1,10,10,14,10,FALSE,1,high
134,12153,2581,10585,survey-multi-choice,19,482114,0.0-10.0-1.0,group2,5a,"{""Q0"":""No""}",implicit,Speaker Unaware,5,No,0,Female,Yes,27,9,Speaker Unaware,14,14,1,0,1,10,10,14,10,FALSE,1,high
135,12153,2583,3917,survey-multi-choice,21,521163,0.0-11.0-1.0,group2,5a,"{""Q0"":""No""}",explicit,Speaker Aware,1,No,0,Female,Yes,27,10,Speaker Aware,14,14,1,0,1,10,10,14,10,FALSE,1,high
136,12153,2585,2887,survey-multi-choice,23,557583,0.0-12.0-1.0,group2,5a,"{""Q0"":""Yes""}",implicit,Speaker Aware,10,Yes,1,Female,Yes,27,11,Speaker Aware,14,14,1,0,1,10,10,14,10,FALSE,1,high
137,12153,2587,2512,survey-multi-choice,25,593328,0.0-13.0-1.0,group2,5a,"{""Q0"":""Yes""}",explicit,Speaker Unaware,12,Yes,1,Female,Yes,27,12,Speaker Unaware,14,14,1,0,1,10,10,14,10,FALSE,1,high
138,12153,2589,3076,survey-multi-choice,27,632674,0.0-14.0-1.0,group2,5a,"{""Q0"":""No""}",implicit,Speaker Aware,14,No,0,Female,Yes,27,13,Speaker Aware,14,14,1,0,1,10,10,14,10,FALSE,1,high
139,12153,2591,3226,survey-multi-choice,29,659720,0.0-15.0-1.0,group2,5a,"{""Q0"":""Yes""}",explicit,Speaker Unaware,15,Yes,1,Female,Yes,27,14,Speaker Unaware,14,14,1,0,1,10,10,14,10,FALSE,1,high
140,12153,2567,3427,survey-multi-choice,5,205426,0.0-3.0-1.0,group2,5a,"{""Q0"":""Yes""}",explicit,Speaker Aware,6,Yes,1,Female,Yes,27,2,Speaker Aware,14,14,1,0,1,10,10,14,10,FALSE,1,high
141,12153,2569,9218,survey-multi-choice,7,263911,0.0-4.0-1.0,group2,5a,"{""Q0"":""Yes""}",implicit,Speaker Unaware,2,Yes,1,Female,Yes,27,3,Speaker Unaware,14,14,1,0,1,10,10,14,10,FALSE,1,high
142,12153,2571,3217,survey-multi-choice,9,297509,0.0-5.0-1.0,group2,5a,"{""Q0"":""No""}",implicit,Speaker Aware,11,No,0,Female,Yes,27,4,Speaker Aware,14,14,1,0,1,10,10,14,10,FALSE,1,high
143,12153,2595,3174,survey-multi-choice,33,738861,0.0-17.0-1.0,group2,5a,"{""Q0"":""No""}",implicit,Speaker Unaware,7,No,0,Female,Yes,27,16,Speaker Unaware,14,14,1,0,1,10,10,14,10,FALSE,1,high
144,12153,2593,2272,survey-multi-choice,31,708787,0.0-16.0-1.0,group2,5a,"{""Q0"":""Yes""}",implicit,Speaker Aware,16,Yes,1,Female,Yes,27,15,Speaker Aware,14,14,1,0,1,10,10,14,10,FALSE,1,high
145,15234,33,10665,survey-multi-choice,33,248967,0.0-17.0-1.0,group1,5a,"{""Q0"":""No""}",implicit,Speaker Unaware,4,No,0,Female,Yes,37,16,Speaker Unaware,10,11,1,0,0,10,10,10.5,10,FALSE,0,high
146,15234,31,8549,survey-multi-choice,31,229945,0.0-16.0-1.0,group1,5a,"{""Q0"":""Yes""}",implicit,Speaker Aware,12,Yes,1,Female,Yes,37,15,Speaker Aware,10,11,1,0,0,10,10,10.5,10,FALSE,0,high
147,15234,11,1904,survey-multi-choice,11,76284,0.0-6.0-1.0,group1,5a,"{""Q0"":""Yes""}",explicit,Speaker Unaware,11,Yes,1,Female,Yes,37,5,Speaker Unaware,10,11,1,0,0,10,10,10.5,10,FALSE,0,high
148,15234,19,17150,survey-multi-choice,19,132404,0.0-10.0-1.0,group1,5a,"{""Q0"":""No""}",explicit,Speaker Aware,5,No,0,Female,Yes,37,9,Speaker Aware,10,11,1,0,0,10,10,10.5,10,FALSE,0,high
149,15234,5,5634,survey-multi-choice,5,40914,0.0-3.0-1.0,group1,5a,"{""Q0"":""No""}",explicit,Speaker Aware,2,No,0,Female,Yes,37,2,Speaker Aware,10,11,1,0,0,10,10,10.5,10,FALSE,0,high
150,15234,15,1707,survey-multi-choice,15,95680,0.0-8.0-1.0,group1,5a,"{""Q0"":""Yes""}",implicit,Speaker Aware,9,Yes,1,Female,Yes,37,7,Speaker Aware,10,11,1,0,0,10,10,10.5,10,FALSE,0,high
151,15234,17,9075,survey-multi-choice,17,109918,0.0-9.0-1.0,group1,5a,"{""Q0"":""Yes""}",explicit,Speaker Aware,8,Yes,1,Female,Yes,37,8,Speaker Aware,10,11,1,0,0,10,10,10.5,10,FALSE,0,high
152,15234,9,6359,survey-multi-choice,9,65010,0.0-5.0-1.0,group1,5a,"{""Q0"":""Yes""}",implicit,Speaker Unaware,3,Yes,1,Female,Yes,37,4,Speaker Unaware,10,11,1,0,0,10,10,10.5,10,FALSE,0,high
153,15234,7,1748,survey-multi-choice,7,53421,0.0-4.0-1.0,group1,5a,"{""Q0"":""No""}",explicit,Speaker Aware,7,No,0,Female,Yes,37,3,Speaker Aware,10,11,1,0,0,10,10,10.5,10,FALSE,0,high
154,15234,29,37909,survey-multi-choice,29,216024,0.0-15.0-1.0,group1,5a,"{""Q0"":""Yes""}",implicit,Speaker Aware,13,Yes,1,Female,Yes,37,14,Speaker Aware,10,11,1,0,0,10,10,10.5,10,FALSE,0,high
155,15234,25,2904,survey-multi-choice,25,160954,0.0-13.0-1.0,group1,5a,"{""Q0"":""Yes""}",implicit,Speaker Unaware,6,Yes,1,Female,Yes,37,12,Speaker Unaware,10,11,1,0,0,10,10,10.5,10,FALSE,0,high
156,15234,27,6833,survey-multi-choice,27,172614,0.0-14.0-1.0,group1,5a,"{""Q0"":""No""}",implicit,Speaker Aware,15,No,0,Female,Yes,37,13,Speaker Aware,10,11,1,0,0,10,10,10.5,10,FALSE,0,high
157,15234,3,11037,survey-multi-choice,3,27774,0.0-2.0-1.0,group1,5a,"{""Q0"":""No""}",implicit,Speaker Unaware,1,No,0,Female,Yes,37,1,Speaker Unaware,10,11,1,0,0,10,10,10.5,10,FALSE,0,high
158,15234,13,6557,survey-multi-choice,13,87718,0.0-7.0-1.0,group1,5a,"{""Q0"":""Yes""}",explicit,Speaker Unaware,14,Yes,1,Female,Yes,37,6,Speaker Unaware,10,11,1,0,0,10,10,10.5,10,FALSE,0,high
159,15234,21,5916,survey-multi-choice,21,143275,0.0-11.0-1.0,group1,5a,"{""Q0"":""Yes""}",explicit,Speaker Unaware,16,Yes,1,Female,Yes,37,10,Speaker Unaware,10,11,1,0,0,10,10,10.5,10,FALSE,0,high
160,15234,23,5022,survey-multi-choice,23,153070,0.0-12.0-1.0,group1,5a,"{""Q0"":""Yes""}",explicit,Speaker Unaware,10,Yes,1,Female,Yes,37,11,Speaker Unaware,10,11,1,0,0,10,10,10.5,10,FALSE,0,high
161,18343,2637,3596,survey-multi-choice,33,1649702,0.0-17.0-1.0,group3,5a,"{""Q0"":""No""}",implicit,Speaker Aware,2,No,0,Female,Yes,63,16,Speaker Aware,4,0,0,0,NA,8,6,2,7,TRUE,0,low
162,18343,2609,34298,survey-multi-choice,5,400964,0.0-3.0-1.0,group3,5a,"{""Q0"":""Yes""}",explicit,Speaker Aware,9,Yes,1,Female,Yes,63,2,Speaker Aware,4,0,0,0,NA,8,6,2,7,TRUE,0,low
163,18343,2611,7048,survey-multi-choice,7,482853,0.0-4.0-1.0,group3,5a,"{""Q0"":""Yes""}",explicit,Speaker Aware,15,Yes,1,Female,Yes,63,3,Speaker Aware,4,0,0,0,NA,8,6,2,7,TRUE,0,low
164,18343,2615,13722,survey-multi-choice,11,617060,0.0-6.0-1.0,group3,5a,"{""Q0"":""Yes""}",implicit,Speaker Unaware,11,Yes,1,Female,Yes,63,5,Speaker Unaware,4,0,0,0,NA,8,6,2,7,TRUE,0,low
165,18343,2617,9241,survey-multi-choice,13,746276,0.0-7.0-1.0,group3,5a,"{""Q0"":""No""}",implicit,Speaker Aware,8,No,0,Female,Yes,63,6,Speaker Aware,4,0,0,0,NA,8,6,2,7,TRUE,0,low
166,18343,2619,4026,survey-multi-choice,15,809749,0.0-8.0-1.0,group3,5a,"{""Q0"":""Yes""}",explicit,Speaker Unaware,1,Yes,1,Female,Yes,63,7,Speaker Unaware,4,0,0,0,NA,8,6,2,7,TRUE,0,low
167,18343,2613,5851,survey-multi-choice,9,542117,0.0-5.0-1.0,group3,5a,"{""Q0"":""Yes""}",explicit,Speaker Unaware,6,Yes,1,Female,Yes,63,4,Speaker Unaware,4,0,0,0,NA,8,6,2,7,TRUE,0,low
168,18343,2623,4794,survey-multi-choice,19,956373,0.0-10.0-1.0,group3,5a,"{""Q0"":""Yes""}",implicit,Speaker Unaware,14,Yes,1,Female,Yes,63,9,Speaker Unaware,4,0,0,0,NA,8,6,2,7,TRUE,0,low
169,18343,2625,9171,survey-multi-choice,21,1056943,0.0-11.0-1.0,group3,5a,"{""Q0"":""Yes""}",explicit,Speaker Aware,13,Yes,1,Female,Yes,63,10,Speaker Aware,4,0,0,0,NA,8,6,2,7,TRUE,0,low
170,18343,2627,5705,survey-multi-choice,23,1165893,0.0-12.0-1.0,group3,5a,"{""Q0"":""Yes""}",explicit,Speaker Unaware,4,Yes,1,Female,Yes,63,11,Speaker Unaware,4,0,0,0,NA,8,6,2,7,TRUE,0,low
171,18343,2621,3642,survey-multi-choice,17,874901,0.0-9.0-1.0,group3,5a,"{""Q0"":""Yes""}",implicit,Speaker Unaware,10,Yes,1,Female,Yes,63,8,Speaker Unaware,4,0,0,0,NA,8,6,2,7,TRUE,0,low
172,18343,2635,3833,survey-multi-choice,31,1558071,0.0-16.0-1.0,group3,5a,"{""Q0"":""No""}",explicit,Speaker Aware,12,No,0,Female,Yes,63,15,Speaker Aware,4,0,0,0,NA,8,6,2,7,TRUE,0,low
173,18343,2607,13657,survey-multi-choice,3,287782,0.0-2.0-1.0,group3,5a,"{""Q0"":""No""}",explicit,Speaker Unaware,3,No,0,Female,Yes,63,1,Speaker Unaware,4,0,0,0,NA,8,6,2,7,TRUE,0,low
174,18343,2633,4770,survey-multi-choice,29,1439454,0.0-15.0-1.0,group3,5a,"{""Q0"":""Yes""}",implicit,Speaker Unaware,16,Yes,1,Female,Yes,63,14,Speaker Unaware,4,0,0,0,NA,8,6,2,7,TRUE,0,low
175,18343,2629,5656,survey-multi-choice,25,1242933,0.0-13.0-1.0,group3,5a,"{""Q0"":""No""}",implicit,Speaker Aware,7,No,0,Female,Yes,63,12,Speaker Aware,4,0,0,0,NA,8,6,2,7,TRUE,0,low
176,18343,2631,3954,survey-multi-choice,27,1370390,0.0-14.0-1.0,group3,5a,"{""Q0"":""Yes""}",implicit,Speaker Aware,5,Yes,1,Female,Yes,63,13,Speaker Aware,4,0,0,0,NA,8,6,2,7,TRUE,0,low
177,19247,155,1571,survey-multi-choice,29,411177,0.0-15.0-1.0,group4,5a,"{""Q0"":""Yes""}",explicit,Speaker Aware,14,Yes,1,Female,Yes,33,14,Speaker Aware,4,6,1,1,NA,10,8,5,9,TRUE,1,low
178,19247,145,1741,survey-multi-choice,19,267226,0.0-10.0-1.0,group4,5a,"{""Q0"":""Yes""}",implicit,Speaker Unaware,12,Yes,1,Female,Yes,33,9,Speaker Unaware,4,6,1,1,NA,10,8,5,9,TRUE,1,low
179,19247,149,1988,survey-multi-choice,23,311154,0.0-12.0-1.0,group4,5a,"{""Q0"":""Yes""}",implicit,Speaker Aware,1,Yes,1,Female,Yes,33,11,Speaker Aware,4,6,1,1,NA,10,8,5,9,TRUE,1,low
180,19247,159,1325,survey-multi-choice,33,453745,0.0-17.0-1.0,group4,5a,"{""Q0"":""Yes""}",implicit,Speaker Unaware,15,Yes,1,Female,Yes,33,16,Speaker Unaware,4,6,1,1,NA,10,8,5,9,TRUE,1,low
181,19247,151,1485,survey-multi-choice,25,363282,0.0-13.0-1.0,group4,5a,"{""Q0"":""Yes""}",explicit,Speaker Aware,10,Yes,1,Female,Yes,33,12,Speaker Aware,4,6,1,1,NA,10,8,5,9,TRUE,1,low
182,19247,153,1678,survey-multi-choice,27,389122,0.0-14.0-1.0,group4,5a,"{""Q0"":""Yes""}",implicit,Speaker Unaware,9,Yes,1,Female,Yes,33,13,Speaker Unaware,4,6,1,1,NA,10,8,5,9,TRUE,1,low
183,19247,147,1540,survey-multi-choice,21,286018,0.0-11.0-1.0,group4,5a,"{""Q0"":""No""}",explicit,Speaker Aware,11,No,0,Female,Yes,33,10,Speaker Aware,4,6,1,1,NA,10,8,5,9,TRUE,1,low
184,19247,129,3457,survey-multi-choice,3,55653,0.0-2.0-1.0,group4,5a,"{""Q0"":""Yes""}",explicit,Speaker Aware,16,Yes,1,Female,Yes,33,1,Speaker Aware,4,6,1,1,NA,10,8,5,9,TRUE,1,low
185,19247,157,2203,survey-multi-choice,31,427882,0.0-16.0-1.0,group4,5a,"{""Q0"":""Yes""}",explicit,Speaker Unaware,5,Yes,1,Female,Yes,33,15,Speaker Unaware,4,6,1,1,NA,10,8,5,9,TRUE,1,low
186,19247,133,1986,survey-multi-choice,7,114772,0.0-4.0-1.0,group4,5a,"{""Q0"":""Yes""}",implicit,Speaker Aware,3,Yes,1,Female,Yes,33,3,Speaker Aware,4,6,1,1,NA,10,8,5,9,TRUE,1,low
187,19247,135,1516,survey-multi-choice,9,139620,0.0-5.0-1.0,group4,5a,"{""Q0"":""No""}",explicit,Speaker Unaware,7,No,0,Female,Yes,33,4,Speaker Unaware,4,6,1,1,NA,10,8,5,9,TRUE,1,low
188,19247,141,2444,survey-multi-choice,15,231091,0.0-8.0-1.0,group4,5a,"{""Q0"":""Yes""}",implicit,Speaker Aware,4,Yes,1,Female,Yes,33,7,Speaker Aware,4,6,1,1,NA,10,8,5,9,TRUE,1,low
189,19247,143,1636,survey-multi-choice,17,245331,0.0-9.0-1.0,group4,5a,"{""Q0"":""Yes""}",implicit,Speaker Aware,6,Yes,1,Female,Yes,33,8,Speaker Aware,4,6,1,1,NA,10,8,5,9,TRUE,1,low
190,19247,137,2292,survey-multi-choice,11,162804,0.0-6.0-1.0,group4,5a,"{""Q0"":""Yes""}",explicit,Speaker Unaware,2,Yes,1,Female,Yes,33,5,Speaker Unaware,4,6,1,1,NA,10,8,5,9,TRUE,1,low
191,19247,131,2301,survey-multi-choice,5,84181,0.0-3.0-1.0,group4,5a,"{""Q0"":""Yes""}",implicit,Speaker Unaware,13,Yes,1,Female,Yes,33,2,Speaker Unaware,4,6,1,1,NA,10,8,5,9,TRUE,1,low
192,19247,139,1813,survey-multi-choice,13,203163,0.0-7.0-1.0,group4,5a,"{""Q0"":""Yes""}",explicit,Speaker Unaware,8,Yes,1,Female,Yes,33,6,Speaker Unaware,4,6,1,1,NA,10,8,5,9,TRUE,1,low
193,20407,263,4476,survey-multi-choice,11,177522,0.0-6.0-1.0,group1,5a,"{""Q0"":""No""}",implicit,Speaker Unaware,3,No,0,Male,Yes,30,5,Speaker Unaware,2,2,0,0,NA,9,7,2,8,TRUE,0,low
194,20407,255,5322,survey-multi-choice,3,65937,0.0-2.0-1.0,group1,5a,"{""Q0"":""Yes""}",explicit,Speaker Unaware,16,Yes,1,Male,Yes,30,1,Speaker Unaware,2,2,0,0,NA,9,7,2,8,TRUE,0,low
195,20407,259,5488,survey-multi-choice,7,129027,0.0-4.0-1.0,group1,5a,"{""Q0"":""No""}",explicit,Speaker Aware,7,No,0,Male,Yes,30,3,Speaker Aware,2,2,0,0,NA,9,7,2,8,TRUE,0,low
196,20407,261,2123,survey-multi-choice,9,153179,0.0-5.0-1.0,group1,5a,"{""Q0"":""Yes""}",implicit,Speaker Aware,13,Yes,1,Male,Yes,30,4,Speaker Aware,2,2,0,0,NA,9,7,2,8,TRUE,0,low
197,20407,257,7646,survey-multi-choice,5,97939,0.0-3.0-1.0,group1,5a,"{""Q0"":""Yes""}",explicit,Speaker Aware,2,Yes,1,Male,Yes,30,2,Speaker Aware,2,2,0,0,NA,9,7,2,8,TRUE,0,low
198,20407,265,7772,survey-multi-choice,13,209523,0.0-7.0-1.0,group1,5a,"{""Q0"":""Yes""}",explicit,Speaker Unaware,11,Yes,1,Male,Yes,30,6,Speaker Unaware,2,2,0,0,NA,9,7,2,8,TRUE,0,low
199,20407,269,4138,survey-multi-choice,17,279026,0.0-9.0-1.0,group1,5a,"{""Q0"":""Yes""}",explicit,Speaker Unaware,14,Yes,1,Male,Yes,30,8,Speaker Unaware,2,2,0,0,NA,9,7,2,8,TRUE,0,low
200,20407,285,2711,survey-multi-choice,33,511154,0.0-17.0-1.0,group1,5a,"{""Q0"":""Yes""}",explicit,Speaker Aware,5,Yes,1,Male,Yes,30,16,Speaker Aware,2,2,0,0,NA,9,7,2,8,TRUE,0,low
201,20407,271,2787,survey-multi-choice,19,302901,0.0-10.0-1.0,group1,5a,"{""Q0"":""Yes""}",implicit,Speaker Unaware,1,Yes,1,Male,Yes,30,9,Speaker Unaware,2,2,0,0,NA,9,7,2,8,TRUE,0,low
202,20407,273,2853,survey-multi-choice,21,327998,0.0-11.0-1.0,group1,5a,"{""Q0"":""Yes""}",implicit,Speaker Unaware,6,Yes,1,Male,Yes,30,10,Speaker Unaware,2,2,0,0,NA,9,7,2,8,TRUE,0,low
203,20407,283,2074,survey-multi-choice,31,479053,0.0-16.0-1.0,group1,5a,"{""Q0"":""Yes""}",implicit,Speaker Aware,12,Yes,1,Male,Yes,30,15,Speaker Aware,2,2,0,0,NA,9,7,2,8,TRUE,0,low
204,20407,279,9171,survey-multi-choice,27,424295,0.0-14.0-1.0,group1,5a,"{""Q0"":""Yes""}",explicit,Speaker Unaware,10,Yes,1,Male,Yes,30,13,Speaker Unaware,2,2,0,0,NA,9,7,2,8,TRUE,0,low
205,20407,281,2142,survey-multi-choice,29,438983,0.0-15.0-1.0,group1,5a,"{""Q0"":""Yes""}",implicit,Speaker Aware,15,Yes,1,Male,Yes,30,14,Speaker Aware,2,2,0,0,NA,9,7,2,8,TRUE,0,low
206,20407,267,3058,survey-multi-choice,15,247792,0.0-8.0-1.0,group1,5a,"{""Q0"":""No""}",implicit,Speaker Unaware,4,No,0,Male,Yes,30,7,Speaker Unaware,2,2,0,0,NA,9,7,2,8,TRUE,0,low
207,20407,275,5293,survey-multi-choice,23,362502,0.0-12.0-1.0,group1,5a,"{""Q0"":""No""}",implicit,Speaker Aware,9,No,0,Male,Yes,30,11,Speaker Aware,2,2,0,0,NA,9,7,2,8,TRUE,0,low
208,20407,277,2572,survey-multi-choice,25,398670,0.0-13.0-1.0,group1,5a,"{""Q0"":""Yes""}",explicit,Speaker Aware,8,Yes,1,Male,Yes,30,12,Speaker Aware,2,2,0,0,NA,9,7,2,8,TRUE,0,low
209,21237,341,3894,survey-multi-choice,5,88184,0.0-3.0-1.0,group4,5a,"{""Q0"":""No""}",implicit,Speaker Aware,4,No,0,Female,Yes,31,2,Speaker Aware,12,11,0,0,NA,9,9,11.5,9,TRUE,0,low
210,21237,345,1970,survey-multi-choice,9,139142,0.0-5.0-1.0,group4,5a,"{""Q0"":""Yes""}",explicit,Speaker Aware,16,Yes,1,Female,Yes,31,4,Speaker Aware,12,11,0,0,NA,9,9,11.5,9,TRUE,0,low
211,21237,357,1862,survey-multi-choice,21,292434,0.0-11.0-1.0,group4,5a,"{""Q0"":""Yes""}",explicit,Speaker Unaware,5,Yes,1,Female,Yes,31,10,Speaker Unaware,12,11,0,0,NA,9,9,11.5,9,TRUE,0,low
212,21237,343,2531,survey-multi-choice,7,112466,0.0-4.0-1.0,group4,5a,"{""Q0"":""No""}",explicit,Speaker Aware,11,No,0,Female,Yes,31,3,Speaker Aware,12,11,0,0,NA,9,9,11.5,9,TRUE,0,low
213,21237,339,5253,survey-multi-choice,3,50259,0.0-2.0-1.0,group4,5a,"{""Q0"":""Yes""}",explicit,Speaker Unaware,8,Yes,1,Female,Yes,31,1,Speaker Unaware,12,11,0,0,NA,9,9,11.5,9,TRUE,0,low
214,21237,365,1702,survey-multi-choice,29,381474,0.0-15.0-1.0,group4,5a,"{""Q0"":""Yes""}",explicit,Speaker Unaware,2,Yes,1,Female,Yes,31,14,Speaker Unaware,12,11,0,0,NA,9,9,11.5,9,TRUE,0,low
215,21237,359,1546,survey-multi-choice,23,315147,0.0-12.0-1.0,group4,5a,"{""Q0"":""Yes""}",implicit,Speaker Unaware,13,Yes,1,Female,Yes,31,11,Speaker Unaware,12,11,0,0,NA,9,9,11.5,9,TRUE,0,low
216,21237,363,1554,survey-multi-choice,27,353348,0.0-14.0-1.0,group4,5a,"{""Q0"":""Yes""}",implicit,Speaker Unaware,12,Yes,1,Female,Yes,31,13,Speaker Unaware,12,11,0,0,NA,9,9,11.5,9,TRUE,0,low
217,21237,355,2088,survey-multi-choice,19,256070,0.0-10.0-1.0,group4,5a,"{""Q0"":""Yes""}",implicit,Speaker Aware,6,Yes,1,Female,Yes,31,9,Speaker Aware,12,11,0,0,NA,9,9,11.5,9,TRUE,0,low
218,21237,353,2392,survey-multi-choice,17,241201,0.0-9.0-1.0,group4,5a,"{""Q0"":""No""}",implicit,Speaker Aware,1,No,0,Female,Yes,31,8,Speaker Aware,12,11,0,0,NA,9,9,11.5,9,TRUE,0,low
219,21237,347,1768,survey-multi-choice,11,169278,0.0-6.0-1.0,group4,5a,"{""Q0"":""Yes""}",explicit,Speaker Unaware,7,Yes,1,Female,Yes,31,5,Speaker Unaware,12,11,0,0,NA,9,9,11.5,9,TRUE,0,low
220,21237,361,1700,survey-multi-choice,25,332808,0.0-13.0-1.0,group4,5a,"{""Q0"":""Yes""}",implicit,Speaker Unaware,15,Yes,1,Female,Yes,31,12,Speaker Unaware,12,11,0,0,NA,9,9,11.5,9,TRUE,0,low
221,21237,369,1542,survey-multi-choice,33,431186,0.0-17.0-1.0,group4,5a,"{""Q0"":""Yes""}",implicit,Speaker Aware,3,Yes,1,Female,Yes,31,16,Speaker Aware,12,11,0,0,NA,9,9,11.5,9,TRUE,0,low
222,21237,351,1720,survey-multi-choice,15,217803,0.0-8.0-1.0,group4,5a,"{""Q0"":""No""}",explicit,Speaker Aware,14,No,0,Female,Yes,31,7,Speaker Aware,12,11,0,0,NA,9,9,11.5,9,TRUE,0,low
223,21237,349,2548,survey-multi-choice,13,190648,0.0-7.0-1.0,group4,5a,"{""Q0"":""Yes""}",implicit,Speaker Unaware,9,Yes,1,Female,Yes,31,6,Speaker Unaware,12,11,0,0,NA,9,9,11.5,9,TRUE,0,low
224,21237,367,1816,survey-multi-choice,31,407798,0.0-16.0-1.0,group4,5a,"{""Q0"":""Yes""}",explicit,Speaker Aware,10,Yes,1,Female,Yes,31,15,Speaker Aware,12,11,0,0,NA,9,9,11.5,9,TRUE,0,low
225,23011,437,2706,survey-multi-choice,17,508191,0.0-9.0-1.0,group3,5a,"{""Q0"":""No""}",implicit,Speaker Unaware,16,No,0,Female,Yes,57,8,Speaker Unaware,6,3,0,1,0,9,8,4.5,8.5,FALSE,0,low
226,23011,443,2690,survey-multi-choice,23,618309,0.0-12.0-1.0,group3,5a,"{""Q0"":""Yes""}",implicit,Speaker Aware,5,Yes,1,Female,Yes,57,11,Speaker Aware,6,3,0,1,0,9,8,4.5,8.5,FALSE,0,low
227,23011,445,1877,survey-multi-choice,25,639586,0.0-13.0-1.0,group3,5a,"{""Q0"":""No""}",implicit,Speaker Unaware,11,No,0,Female,Yes,57,12,Speaker Unaware,6,3,0,1,0,9,8,4.5,8.5,FALSE,0,low
228,23011,425,4606,survey-multi-choice,5,124565,0.0-3.0-1.0,group3,5a,"{""Q0"":""No""}",explicit,Speaker Unaware,1,No,0,Female,Yes,57,2,Speaker Unaware,6,3,0,1,0,9,8,4.5,8.5,FALSE,0,low
229,23011,441,8292,survey-multi-choice,21,573931,0.0-11.0-1.0,group3,5a,"{""Q0"":""Yes""}",explicit,Speaker Unaware,6,Yes,1,Female,Yes,57,10,Speaker Unaware,6,3,0,1,0,9,8,4.5,8.5,FALSE,0,low
230,23011,435,1838,survey-multi-choice,15,303907,0.0-8.0-1.0,group3,5a,"{""Q0"":""No""}",explicit,Speaker Aware,12,No,0,Female,Yes,57,7,Speaker Aware,6,3,0,1,0,9,8,4.5,8.5,FALSE,0,low
231,23011,433,2199,survey-multi-choice,13,268720,0.0-7.0-1.0,group3,5a,"{""Q0"":""Yes""}",implicit,Speaker Aware,2,Yes,1,Female,Yes,57,6,Speaker Aware,6,3,0,1,0,9,8,4.5,8.5,FALSE,0,low
232,23011,439,3283,survey-multi-choice,19,546747,0.0-10.0-1.0,group3,5a,"{""Q0"":""No""}",explicit,Speaker Unaware,4,No,0,Female,Yes,57,9,Speaker Unaware,6,3,0,1,0,9,8,4.5,8.5,FALSE,0,low
233,23011,423,4933,survey-multi-choice,3,79269,0.0-2.0-1.0,group3,5a,"{""Q0"":""Yes""}",implicit,Speaker Unaware,14,Yes,1,Female,Yes,57,1,Speaker Unaware,6,3,0,1,0,9,8,4.5,8.5,FALSE,0,low
234,23011,449,1892,survey-multi-choice,29,693291,0.0-15.0-1.0,group3,5a,"{""Q0"":""No""}",explicit,Speaker Aware,13,No,0,Female,Yes,57,14,Speaker Aware,6,3,0,1,0,9,8,4.5,8.5,FALSE,0,low
235,23011,431,1865,survey-multi-choice,11,230103,0.0-6.0-1.0,group3,5a,"{""Q0"":""No""}",implicit,Speaker Aware,8,No,0,Female,Yes,57,5,Speaker Aware,6,3,0,1,0,9,8,4.5,8.5,FALSE,0,low
236,23011,453,1924,survey-multi-choice,33,763921,0.0-17.0-1.0,group3,5a,"{""Q0"":""No""}",explicit,Speaker Aware,9,No,0,Female,Yes,57,16,Speaker Aware,6,3,0,1,0,9,8,4.5,8.5,FALSE,0,low
237,23011,447,2113,survey-multi-choice,27,666797,0.0-14.0-1.0,group3,5a,"{""Q0"":""No""}",explicit,Speaker Aware,15,No,0,Female,Yes,57,13,Speaker Aware,6,3,0,1,0,9,8,4.5,8.5,FALSE,0,low
238,23011,429,2856,survey-multi-choice,9,196254,0.0-5.0-1.0,group3,5a,"{""Q0"":""Yes""}",implicit,Speaker Unaware,10,Yes,1,Female,Yes,57,4,Speaker Unaware,6,3,0,1,0,9,8,4.5,8.5,FALSE,0,low
239,23011,451,2136,survey-multi-choice,31,728464,0.0-16.0-1.0,group3,5a,"{""Q0"":""No""}",implicit,Speaker Aware,7,No,0,Female,Yes,57,15,Speaker Aware,6,3,0,1,0,9,8,4.5,8.5,FALSE,0,low
240,23011,427,6698,survey-multi-choice,7,166943,0.0-4.0-1.0,group3,5a,"{""Q0"":""Yes""}",explicit,Speaker Unaware,3,Yes,1,Female,Yes,57,3,Speaker Unaware,6,3,0,1,0,9,8,4.5,8.5,FALSE,0,low
241,27612,469,1478,survey-multi-choice,7,85350,0.0-4.0-1.0,group2,5a,"{""Q0"":""Yes""}",explicit,Speaker Unaware,9,Yes,1,Female,Yes,30,3,Speaker Unaware,7,9,0,0,NA,10,10,8,10,TRUE,0,high
242,27612,475,1221,survey-multi-choice,13,134693,0.0-7.0-1.0,group2,5a,"{""Q0"":""Yes""}",implicit,Speaker Aware,16,Yes,1,Female,Yes,30,6,Speaker Aware,7,9,0,0,NA,10,10,8,10,TRUE,0,high
243,27612,477,1174,survey-multi-choice,15,156669,0.0-8.0-1.0,group2,5a,"{""Q0"":""Yes""}",implicit,Speaker Aware,10,Yes,1,Female,Yes,30,7,Speaker Aware,7,9,0,0,NA,10,10,8,10,TRUE,0,high
244,27612,467,1754,survey-multi-choice,5,59199,0.0-3.0-1.0,group2,5a,"{""Q0"":""No""}",explicit,Speaker Aware,6,No,0,Female,Yes,30,2,Speaker Aware,7,9,0,0,NA,10,10,8,10,TRUE,0,high
245,27612,471,1484,survey-multi-choice,9,107374,0.0-5.0-1.0,group2,5a,"{""Q0"":""No""}",explicit,Speaker Aware,4,No,0,Female,Yes,30,4,Speaker Aware,7,9,0,0,NA,10,10,8,10,TRUE,0,high
246,27612,473,1460,survey-multi-choice,11,119893,0.0-6.0-1.0,group2,5a,"{""Q0"":""Yes""}",explicit,Speaker Aware,1,Yes,1,Female,Yes,30,5,Speaker Aware,7,9,0,0,NA,10,10,8,10,TRUE,0,high
247,27612,495,1254,survey-multi-choice,33,273931,0.0-17.0-1.0,group2,5a,"{""Q0"":""No""}",explicit,Speaker Unaware,13,No,0,Female,Yes,30,16,Speaker Unaware,7,9,0,0,NA,10,10,8,10,TRUE,0,high
248,27612,481,1606,survey-multi-choice,19,206332,0.0-10.0-1.0,group2,5a,"{""Q0"":""No""}",explicit,Speaker Aware,3,No,0,Female,Yes,30,9,Speaker Aware,7,9,0,0,NA,10,10,8,10,TRUE,0,high
249,27612,493,926,survey-multi-choice,31,269162,0.0-16.0-1.0,group2,5a,"{""Q0"":""No""}",implicit,Speaker Unaware,2,No,0,Female,Yes,30,15,Speaker Unaware,7,9,0,0,NA,10,10,8,10,TRUE,0,high
250,27612,483,1502,survey-multi-choice,21,232595,0.0-11.0-1.0,group2,5a,"{""Q0"":""Yes""}",implicit,Speaker Unaware,5,Yes,1,Female,Yes,30,10,Speaker Unaware,7,9,0,0,NA,10,10,8,10,TRUE,0,high
251,27612,479,2837,survey-multi-choice,17,193515,0.0-9.0-1.0,group2,5a,"{""Q0"":""Yes""}",implicit,Speaker Aware,14,Yes,1,Female,Yes,30,8,Speaker Aware,7,9,0,0,NA,10,10,8,10,TRUE,0,high
252,27612,465,2639,survey-multi-choice,3,46256,0.0-2.0-1.0,group2,5a,"{""Q0"":""No""}",implicit,Speaker Aware,11,No,0,Female,Yes,30,1,Speaker Aware,7,9,0,0,NA,10,10,8,10,TRUE,0,high
253,27612,491,1197,survey-multi-choice,29,263907,0.0-15.0-1.0,group2,5a,"{""Q0"":""No""}",implicit,Speaker Unaware,8,No,0,Female,Yes,30,14,Speaker Unaware,7,9,0,0,NA,10,10,8,10,TRUE,0,high
254,27612,489,974,survey-multi-choice,27,259426,0.0-14.0-1.0,group2,5a,"{""Q0"":""Yes""}",explicit,Speaker Unaware,15,Yes,1,Female,Yes,30,13,Speaker Unaware,7,9,0,0,NA,10,10,8,10,TRUE,0,high
255,27612,485,1395,survey-multi-choice,23,245779,0.0-12.0-1.0,group2,5a,"{""Q0"":""Yes""}",explicit,Speaker Unaware,12,Yes,1,Female,Yes,30,11,Speaker Unaware,7,9,0,0,NA,10,10,8,10,TRUE,0,high
256,27612,487,4555,survey-multi-choice,25,254467,0.0-13.0-1.0,group2,5a,"{""Q0"":""Yes""}",implicit,Speaker Unaware,7,Yes,1,Female,Yes,30,12,Speaker Unaware,7,9,0,0,NA,10,10,8,10,TRUE,0,high
257,27872,517,2636,survey-multi-choice,13,225037,0.0-7.0-1.0,group3,5a,"{""Q0"":""Yes""}",implicit,Speaker Aware,2,Yes,1,Female,Yes,57,6,Speaker Aware,7,10,0,0,NA,10,10,8.5,10,TRUE,0,high
258,27872,511,2501,survey-multi-choice,7,144686,0.0-4.0-1.0,group3,5a,"{""Q0"":""Yes""}",implicit,Speaker Unaware,16,Yes,1,Female,Yes,57,3,Speaker Unaware,7,10,0,0,NA,10,10,8.5,10,TRUE,0,high
259,27872,513,3694,survey-multi-choice,9,163719,0.0-5.0-1.0,group3,5a,"{""Q0"":""Yes""}",explicit,Speaker Unaware,6,Yes,1,Female,Yes,57,4,Speaker Unaware,7,10,0,0,NA,10,10,8.5,10,TRUE,0,high
260,27872,519,1799,survey-multi-choice,15,251007,0.0-8.0-1.0,group3,5a,"{""Q0"":""No""}",explicit,Speaker Aware,12,No,0,Female,Yes,57,7,Speaker Aware,7,10,0,0,NA,10,10,8.5,10,TRUE,0,high
261,27872,509,4638,survey-multi-choice,5,119920,0.0-3.0-1.0,group3,5a,"{""Q0"":""No""}",implicit,Speaker Aware,5,No,0,Female,Yes,57,2,Speaker Aware,7,10,0,0,NA,10,10,8.5,10,TRUE,0,high
262,27872,531,2248,survey-multi-choice,27,483973,0.0-14.0-1.0,group3,5a,"{""Q0"":""Yes""}",implicit,Speaker Aware,8,Yes,1,Female,Yes,57,13,Speaker Aware,7,10,0,0,NA,10,10,8.5,10,TRUE,0,high
263,27872,533,2440,survey-multi-choice,29,515141,0.0-15.0-1.0,group3,5a,"{""Q0"":""No""}",explicit,Speaker Unaware,3,No,0,Female,Yes,57,14,Speaker Unaware,7,10,0,0,NA,10,10,8.5,10,TRUE,0,high
264,27872,515,3874,survey-multi-choice,11,192783,0.0-6.0-1.0,group3,5a,"{""Q0"":""No""}",explicit,Speaker Aware,9,No,0,Female,Yes,57,5,Speaker Aware,7,10,0,0,NA,10,10,8.5,10,TRUE,0,high
265,27872,537,3035,survey-multi-choice,33,570091,0.0-17.0-1.0,group3,5a,"{""Q0"":""Yes""}",implicit,Speaker Unaware,14,Yes,1,Female,Yes,57,16,Speaker Unaware,7,10,0,0,NA,10,10,8.5,10,TRUE,0,high
266,27872,507,5946,survey-multi-choice,3,73840,0.0-2.0-1.0,group3,5a,"{""Q0"":""No""}",implicit,Speaker Aware,7,No,0,Female,Yes,57,1,Speaker Aware,7,10,0,0,NA,10,10,8.5,10,TRUE,0,high
267,27872,521,2630,survey-multi-choice,17,278959,0.0-9.0-1.0,group3,5a,"{""Q0"":""No""}",explicit,Speaker Aware,15,No,0,Female,Yes,57,8,Speaker Aware,7,10,0,0,NA,10,10,8.5,10,TRUE,0,high
268,27872,535,2349,survey-multi-choice,31,533794,0.0-16.0-1.0,group3,5a,"{""Q0"":""Yes""}",implicit,Speaker Unaware,11,Yes,1,Female,Yes,57,15,Speaker Unaware,7,10,0,0,NA,10,10,8.5,10,TRUE,0,high
269,27872,523,2358,survey-multi-choice,19,322511,0.0-10.0-1.0,group3,5a,"{""Q0"":""No""}",explicit,Speaker Unaware,1,No,0,Female,Yes,57,9,Speaker Unaware,7,10,0,0,NA,10,10,8.5,10,TRUE,0,high
270,27872,525,2239,survey-multi-choice,21,370611,0.0-11.0-1.0,group3,5a,"{""Q0"":""No""}",explicit,Speaker Aware,13,No,0,Female,Yes,57,10,Speaker Aware,7,10,0,0,NA,10,10,8.5,10,TRUE,0,high
271,27872,529,2118,survey-multi-choice,25,425692,0.0-13.0-1.0,group3,5a,"{""Q0"":""Yes""}",explicit,Speaker Unaware,4,Yes,1,Female,Yes,57,12,Speaker Unaware,7,10,0,0,NA,10,10,8.5,10,TRUE,0,high
272,27872,527,2365,survey-multi-choice,23,392988,0.0-12.0-1.0,group3,5a,"{""Q0"":""Yes""}",implicit,Speaker Unaware,10,Yes,1,Female,Yes,57,11,Speaker Unaware,7,10,0,0,NA,10,10,8.5,10,TRUE,0,high
273,28436,2651,5720,survey-multi-choice,5,80823,0.0-3.0-1.0,group1,5a,"{""Q0"":""No""}",implicit,Speaker Unaware,3,No,0,Male,Yes,24,2,Speaker Unaware,13,11,0,0,NA,10,9,12,9.5,TRUE,0,high
274,28436,2649,4247,survey-multi-choice,3,49233,0.0-2.0-1.0,group1,5a,"{""Q0"":""Yes""}",implicit,Speaker Unaware,4,Yes,1,Male,Yes,24,1,Speaker Unaware,13,11,0,0,NA,10,9,12,9.5,TRUE,0,high
275,28436,2659,1388,survey-multi-choice,13,179670,0.0-7.0-1.0,group1,5a,"{""Q0"":""No""}",explicit,Speaker Aware,7,No,0,Male,Yes,24,6,Speaker Aware,13,11,0,0,NA,10,9,12,9.5,TRUE,0,high
276,28436,2653,2092,survey-multi-choice,7,108855,0.0-4.0-1.0,group1,5a,"{""Q0"":""Yes""}",explicit,Speaker Unaware,14,Yes,1,Male,Yes,24,3,Speaker Unaware,13,11,0,0,NA,10,9,12,9.5,TRUE,0,high
277,28436,2655,2165,survey-multi-choice,9,140103,0.0-5.0-1.0,group1,5a,"{""Q0"":""Yes""}",implicit,Speaker Aware,13,Yes,1,Male,Yes,24,4,Speaker Aware,13,11,0,0,NA,10,9,12,9.5,TRUE,0,high
278,28436,2657,1419,survey-multi-choice,11,159065,0.0-6.0-1.0,group1,5a,"{""Q0"":""Yes""}",explicit,Speaker Unaware,10,Yes,1,Male,Yes,24,5,Speaker Unaware,13,11,0,0,NA,10,9,12,9.5,TRUE,0,high
279,28436,2667,1604,survey-multi-choice,21,263118,0.0-11.0-1.0,group1,5a,"{""Q0"":""Yes""}",explicit,Speaker Unaware,16,Yes,1,Male,Yes,24,10,Speaker Unaware,13,11,0,0,NA,10,9,12,9.5,TRUE,0,high
280,28436,2661,2416,survey-multi-choice,15,196848,0.0-8.0-1.0,group1,5a,"{""Q0"":""Yes""}",explicit,Speaker Unaware,11,Yes,1,Male,Yes,24,7,Speaker Unaware,13,11,0,0,NA,10,9,12,9.5,TRUE,0,high
281,28436,2663,1586,survey-multi-choice,17,220233,0.0-9.0-1.0,group1,5a,"{""Q0"":""No""}",explicit,Speaker Aware,2,No,0,Male,Yes,24,8,Speaker Aware,13,11,0,0,NA,10,9,12,9.5,TRUE,0,high
282,28436,2665,1384,survey-multi-choice,19,244511,0.0-10.0-1.0,group1,5a,"{""Q0"":""Yes""}",explicit,Speaker Aware,5,Yes,1,Male,Yes,24,9,Speaker Aware,13,11,0,0,NA,10,9,12,9.5,TRUE,0,high
283,28436,2675,1311,survey-multi-choice,29,341424,0.0-15.0-1.0,group1,5a,"{""Q0"":""No""}",implicit,Speaker Aware,12,No,0,Male,Yes,24,14,Speaker Aware,13,11,0,0,NA,10,9,12,9.5,TRUE,0,high
284,28436,2677,1725,survey-multi-choice,31,359215,0.0-16.0-1.0,group1,5a,"{""Q0"":""No""}",implicit,Speaker Aware,9,No,0,Male,Yes,24,15,Speaker Aware,13,11,0,0,NA,10,9,12,9.5,TRUE,0,high
285,28436,2679,3584,survey-multi-choice,33,384870,0.0-17.0-1.0,group1,5a,"{""Q0"":""Yes""}",explicit,Speaker Aware,8,Yes,1,Male,Yes,24,16,Speaker Aware,13,11,0,0,NA,10,9,12,9.5,TRUE,0,high
286,28436,2671,1667,survey-multi-choice,25,304919,0.0-13.0-1.0,group1,5a,"{""Q0"":""Yes""}",implicit,Speaker Unaware,1,Yes,1,Male,Yes,24,12,Speaker Unaware,13,11,0,0,NA,10,9,12,9.5,TRUE,0,high
287,28436,2673,1279,survey-multi-choice,27,322363,0.0-14.0-1.0,group1,5a,"{""Q0"":""Yes""}",implicit,Speaker Aware,15,Yes,1,Male,Yes,24,13,Speaker Aware,13,11,0,0,NA,10,9,12,9.5,TRUE,0,high
288,28436,2669,1671,survey-multi-choice,23,279165,0.0-12.0-1.0,group1,5a,"{""Q0"":""Yes""}",implicit,Speaker Unaware,6,Yes,1,Male,Yes,24,11,Speaker Unaware,13,11,0,0,NA,10,9,12,9.5,TRUE,0,high
289,29622,553,6023,survey-multi-choice,7,213357,0.0-4.0-1.0,group4,5a,"{""Q0"":""Yes""}",explicit,Speaker Aware,10,Yes,1,Female,Yes,46,3,Speaker Aware,12,11,0,0,NA,10,10,11.5,10,TRUE,0,high
290,29622,549,6276,survey-multi-choice,3,102815,0.0-2.0-1.0,group4,5a,"{""Q0"":""No""}",implicit,Speaker Aware,4,No,0,Female,Yes,46,1,Speaker Aware,12,11,0,0,NA,10,10,11.5,10,TRUE,0,high
291,29622,551,5758,survey-multi-choice,5,155158,0.0-3.0-1.0,group4,5a,"{""Q0"":""Yes""}",explicit,Speaker Unaware,7,Yes,1,Female,Yes,46,2,Speaker Unaware,12,11,0,0,NA,10,10,11.5,10,TRUE,0,high
292,29622,561,3496,survey-multi-choice,15,431076,0.0-8.0-1.0,group4,5a,"{""Q0"":""No""}",explicit,Speaker Aware,11,No,0,Female,Yes,46,7,Speaker Aware,12,11,0,0,NA,10,10,11.5,10,TRUE,0,high
293,29622,555,3822,survey-multi-choice,9,293551,0.0-5.0-1.0,group4,5a,"{""Q0"":""Yes""}",explicit,Speaker Unaware,5,Yes,1,Female,Yes,46,4,Speaker Unaware,12,11,0,0,NA,10,10,11.5,10,TRUE,0,high
294,29622,567,4013,survey-multi-choice,21,543072,0.0-11.0-1.0,group4,5a,"{""Q0"":""Yes""}",implicit,Speaker Unaware,13,Yes,1,Female,Yes,46,10,Speaker Unaware,12,11,0,0,NA,10,10,11.5,10,TRUE,0,high
295,29622,569,2064,survey-multi-choice,23,563173,0.0-12.0-1.0,group4,5a,"{""Q0"":""No""}",implicit,Speaker Aware,6,No,0,Female,Yes,46,11,Speaker Aware,12,11,0,0,NA,10,10,11.5,10,TRUE,0,high
296,29622,573,3427,survey-multi-choice,27,636550,0.0-14.0-1.0,group4,5a,"{""Q0"":""No""}",implicit,Speaker Unaware,15,No,0,Female,Yes,46,13,Speaker Unaware,12,11,0,0,NA,10,10,11.5,10,TRUE,0,high
297,29622,563,2562,survey-multi-choice,17,459243,0.0-9.0-1.0,group4,5a,"{""Q0"":""No""}",implicit,Speaker Aware,1,No,0,Female,Yes,46,8,Speaker Aware,12,11,0,0,NA,10,10,11.5,10,TRUE,0,high
298,29622,565,2324,survey-multi-choice,19,502646,0.0-10.0-1.0,group4,5a,"{""Q0"":""Yes""}",implicit,Speaker Unaware,12,Yes,1,Female,Yes,46,9,Speaker Unaware,12,11,0,0,NA,10,10,11.5,10,TRUE,0,high
299,29622,559,3298,survey-multi-choice,13,386439,0.0-7.0-1.0,group4,5a,"{""Q0"":""Yes""}",explicit,Speaker Unaware,8,Yes,1,Female,Yes,46,6,Speaker Unaware,12,11,0,0,NA,10,10,11.5,10,TRUE,0,high
300,29622,557,3874,survey-multi-choice,11,333783,0.0-6.0-1.0,group4,5a,"{""Q0"":""No""}",explicit,Speaker Aware,14,No,0,Female,Yes,46,5,Speaker Aware,12,11,0,0,NA,10,10,11.5,10,TRUE,0,high
301,29622,571,1863,survey-multi-choice,25,592070,0.0-13.0-1.0,group4,5a,"{""Q0"":""No""}",explicit,Speaker Aware,16,No,0,Female,Yes,46,12,Speaker Aware,12,11,0,0,NA,10,10,11.5,10,TRUE,0,high
302,29622,577,2246,survey-multi-choice,31,699786,0.0-16.0-1.0,group4,5a,"{""Q0"":""Yes""}",implicit,Speaker Unaware,9,Yes,1,Female,Yes,46,15,Speaker Unaware,12,11,0,0,NA,10,10,11.5,10,TRUE,0,high
303,29622,579,2421,survey-multi-choice,33,739451,0.0-17.0-1.0,group4,5a,"{""Q0"":""Yes""}",explicit,Speaker Unaware,2,Yes,1,Female,Yes,46,16,Speaker Unaware,12,11,0,0,NA,10,10,11.5,10,TRUE,0,high
304,29622,575,6447,survey-multi-choice,29,668925,0.0-15.0-1.0,group4,5a,"{""Q0"":""No""}",implicit,Speaker Aware,3,No,0,Female,Yes,46,14,Speaker Aware,12,11,0,0,NA,10,10,11.5,10,TRUE,0,high
305,30574,2695,7460,survey-multi-choice,7,217299,0.0-4.0-1.0,group4,5a,"{""Q0"":""Yes""}",implicit,Speaker Unaware,13,Yes,1,Male,Yes,24,3,Speaker Unaware,10,10,0,1,0,10,10,10,10,FALSE,0,high
306,30574,2691,15159,survey-multi-choice,3,106104,0.0-2.0-1.0,group4,5a,"{""Q0"":""Yes""}",implicit,Speaker Aware,4,Yes,1,Male,Yes,24,1,Speaker Aware,10,10,0,1,0,10,10,10,10,FALSE,0,high
307,30574,2693,16401,survey-multi-choice,5,171344,0.0-3.0-1.0,group4,5a,"{""Q0"":""No""}",explicit,Speaker Aware,16,No,0,Male,Yes,24,2,Speaker Aware,10,10,0,1,0,10,10,10,10,FALSE,0,high
308,30574,2703,3481,survey-multi-choice,15,418156,0.0-8.0-1.0,group4,5a,"{""Q0"":""No""}",explicit,Speaker Unaware,7,No,0,Male,Yes,24,7,Speaker Unaware,10,10,0,1,0,10,10,10,10,FALSE,0,high
309,30574,2697,8993,survey-multi-choice,9,256419,0.0-5.0-1.0,group4,5a,"{""Q0"":""No""}",implicit,Speaker Unaware,9,No,0,Male,Yes,24,4,Speaker Unaware,10,10,0,1,0,10,10,10,10,FALSE,0,high
310,30574,2699,22275,survey-multi-choice,11,362921,0.0-6.0-1.0,group4,5a,"{""Q0"":""Yes""}",implicit,Speaker Aware,3,Yes,1,Male,Yes,24,5,Speaker Aware,10,10,0,1,0,10,10,10,10,FALSE,0,high
311,30574,2701,1844,survey-multi-choice,13,382428,0.0-7.0-1.0,group4,5a,"{""Q0"":""Yes""}",implicit,Speaker Aware,6,Yes,1,Male,Yes,24,6,Speaker Aware,10,10,0,1,0,10,10,10,10,FALSE,0,high
312,30574,2709,1429,survey-multi-choice,21,508394,0.0-11.0-1.0,group4,5a,"{""Q0"":""Yes""}",explicit,Speaker Aware,10,Yes,1,Male,Yes,24,10,Speaker Aware,10,10,0,1,0,10,10,10,10,FALSE,0,high
313,30574,2711,2290,survey-multi-choice,23,561905,0.0-12.0-1.0,group4,5a,"{""Q0"":""No""}",explicit,Speaker Unaware,5,No,0,Male,Yes,24,11,Speaker Unaware,10,10,0,1,0,10,10,10,10,FALSE,0,high
314,30574,2713,44532,survey-multi-choice,25,644914,0.0-13.0-1.0,group4,5a,"{""Q0"":""Yes""}",implicit,Speaker Unaware,12,Yes,1,Male,Yes,24,12,Speaker Unaware,10,10,0,1,0,10,10,10,10,FALSE,0,high
315,30574,2715,2558,survey-multi-choice,27,695491,0.0-14.0-1.0,group4,5a,"{""Q0"":""No""}",explicit,Speaker Unaware,8,No,0,Male,Yes,24,13,Speaker Unaware,10,10,0,1,0,10,10,10,10,FALSE,0,high
316,30574,2717,1440,survey-multi-choice,29,732665,0.0-15.0-1.0,group4,5a,"{""Q0"":""Yes""}",explicit,Speaker Unaware,2,Yes,1,Male,Yes,24,14,Speaker Unaware,10,10,0,1,0,10,10,10,10,FALSE,0,high
317,30574,2719,1526,survey-multi-choice,31,766201,0.0-16.0-1.0,group4,5a,"{""Q0"":""No""}",explicit,Speaker Aware,14,No,0,Male,Yes,24,15,Speaker Aware,10,10,0,1,0,10,10,10,10,FALSE,0,high
318,30574,2721,1720,survey-multi-choice,33,791983,0.0-17.0-1.0,group4,5a,"{""Q0"":""Yes""}",explicit,Speaker Aware,11,Yes,1,Male,Yes,24,16,Speaker Aware,10,10,0,1,0,10,10,10,10,FALSE,0,high
319,30574,2705,2243,survey-multi-choice,17,450060,0.0-9.0-1.0,group4,5a,"{""Q0"":""Yes""}",implicit,Speaker Unaware,15,Yes,1,Male,Yes,24,8,Speaker Unaware,10,10,0,1,0,10,10,10,10,FALSE,0,high
320,30574,2707,1805,survey-multi-choice,19,477785,0.0-10.0-1.0,group4,5a,"{""Q0"":""No""}",implicit,Speaker Aware,1,No,0,Male,Yes,24,9,Speaker Aware,10,10,0,1,0,10,10,10,10,FALSE,0,high
321,32651,621,1904,survey-multi-choice,33,514075,0.0-17.0-1.0,group2,5a,"{""Q0"":""Yes""}",explicit,Speaker Unaware,9,Yes,1,Female,Yes,27,16,Speaker Unaware,11,13,0,1,1,10,9,12,9.5,FALSE,1,high
322,32651,609,1499,survey-multi-choice,21,262525,0.0-11.0-1.0,group2,5a,"{""Q0"":""No""}",implicit,Speaker Aware,16,No,0,Female,Yes,27,10,Speaker Aware,11,13,0,1,1,10,9,12,9.5,FALSE,1,high
323,32651,617,1912,survey-multi-choice,29,472354,0.0-15.0-1.0,group2,5a,"{""Q0"":""Yes""}",explicit,Speaker Unaware,12,Yes,1,Female,Yes,27,14,Speaker Unaware,11,13,0,1,1,10,9,12,9.5,FALSE,1,high
324,32651,619,1636,survey-multi-choice,31,491022,0.0-16.0-1.0,group2,5a,"{""Q0"":""No""}",implicit,Speaker Aware,11,No,0,Female,Yes,27,15,Speaker Aware,11,13,0,1,1,10,9,12,9.5,FALSE,1,high
325,32651,605,1779,survey-multi-choice,17,217071,0.0-9.0-1.0,group2,5a,"{""Q0"":""No""}",implicit,Speaker Unaware,7,No,0,Female,Yes,27,8,Speaker Unaware,11,13,0,1,1,10,9,12,9.5,FALSE,1,high
326,32651,611,1447,survey-multi-choice,23,292816,0.0-12.0-1.0,group2,5a,"{""Q0"":""No""}",explicit,Speaker Aware,3,No,0,Female,Yes,27,11,Speaker Aware,11,13,0,1,1,10,9,12,9.5,FALSE,1,high
327,32651,613,2403,survey-multi-choice,25,316397,0.0-13.0-1.0,group2,5a,"{""Q0"":""No""}",explicit,Speaker Aware,4,No,0,Female,Yes,27,12,Speaker Aware,11,13,0,1,1,10,9,12,9.5,FALSE,1,high
328,32651,607,1862,survey-multi-choice,19,239215,0.0-10.0-1.0,group2,5a,"{""Q0"":""Yes""}",implicit,Speaker Aware,10,Yes,1,Female,Yes,27,9,Speaker Aware,11,13,0,1,1,10,9,12,9.5,FALSE,1,high
329,32651,597,1762,survey-multi-choice,9,131430,0.0-5.0-1.0,group2,5a,"{""Q0"":""Yes""}",implicit,Speaker Unaware,2,Yes,1,Female,Yes,27,4,Speaker Unaware,11,13,0,1,1,10,9,12,9.5,FALSE,1,high
330,32651,603,1684,survey-multi-choice,15,192398,0.0-8.0-1.0,group2,5a,"{""Q0"":""Yes""}",explicit,Speaker Unaware,15,Yes,1,Female,Yes,27,7,Speaker Unaware,11,13,0,1,1,10,9,12,9.5,FALSE,1,high
331,32651,601,3888,survey-multi-choice,13,172378,0.0-7.0-1.0,group2,5a,"{""Q0"":""Yes""}",explicit,Speaker Aware,6,Yes,1,Female,Yes,27,6,Speaker Aware,11,13,0,1,1,10,9,12,9.5,FALSE,1,high
332,32651,615,2233,survey-multi-choice,27,349795,0.0-14.0-1.0,group2,5a,"{""Q0"":""No""}",implicit,Speaker Unaware,5,No,0,Female,Yes,27,13,Speaker Unaware,11,13,0,1,1,10,9,12,9.5,FALSE,1,high
333,32651,599,1937,survey-multi-choice,11,154514,0.0-6.0-1.0,group2,5a,"{""Q0"":""Yes""}",explicit,Speaker Unaware,13,Yes,1,Female,Yes,27,5,Speaker Unaware,11,13,0,1,1,10,9,12,9.5,FALSE,1,high
334,32651,593,6378,survey-multi-choice,5,86418,0.0-3.0-1.0,group2,5a,"{""Q0"":""Yes""}",implicit,Speaker Unaware,8,Yes,1,Female,Yes,27,2,Speaker Unaware,11,13,0,1,1,10,9,12,9.5,FALSE,1,high
335,32651,595,1871,survey-multi-choice,7,107841,0.0-4.0-1.0,group2,5a,"{""Q0"":""No""}",explicit,Speaker Aware,1,No,0,Female,Yes,27,3,Speaker Aware,11,13,0,1,1,10,9,12,9.5,FALSE,1,high
336,32651,591,4235,survey-multi-choice,3,50468,0.0-2.0-1.0,group2,5a,"{""Q0"":""No""}",implicit,Speaker Aware,14,No,0,Female,Yes,27,1,Speaker Aware,11,13,0,1,1,10,9,12,9.5,FALSE,1,high
337,32946,653,2970,survey-multi-choice,23,967311,0.0-12.0-1.0,group4,5a,"{""Q0"":""Yes""}",implicit,Speaker Unaware,12,Yes,1,Female,Yes,38,11,Speaker Unaware,11,11,0,0,NA,10,8,11,9,TRUE,0,low
338,32946,651,4153,survey-multi-choice,21,889846,0.0-11.0-1.0,group4,5a,"{""Q0"":""Yes""}",explicit,Speaker Aware,14,Yes,1,Female,Yes,38,10,Speaker Aware,11,11,0,0,NA,10,8,11,9,TRUE,0,low
339,32946,633,6634,survey-multi-choice,3,186007,0.0-2.0-1.0,group4,5a,"{""Q0"":""No""}",explicit,Speaker Unaware,7,No,0,Female,Yes,38,1,Speaker Unaware,11,11,0,0,NA,10,8,11,9,TRUE,0,low
340,32946,649,13422,survey-multi-choice,19,850291,0.0-10.0-1.0,group4,5a,"{""Q0"":""No""}",explicit,Speaker Unaware,2,No,0,Female,Yes,38,9,Speaker Unaware,11,11,0,0,NA,10,8,11,9,TRUE,0,low
341,32946,659,1858,survey-multi-choice,29,1107286,0.0-15.0-1.0,group4,5a,"{""Q0"":""Yes""}",implicit,Speaker Unaware,9,Yes,1,Female,Yes,38,14,Speaker Unaware,11,11,0,0,NA,10,8,11,9,TRUE,0,low
342,32946,655,3268,survey-multi-choice,25,1004690,0.0-13.0-1.0,group4,5a,"{""Q0"":""No""}",explicit,Speaker Aware,11,No,0,Female,Yes,38,12,Speaker Aware,11,11,0,0,NA,10,8,11,9,TRUE,0,low
343,32946,647,3003,survey-multi-choice,17,766637,0.0-9.0-1.0,group4,5a,"{""Q0"":""Yes""}",implicit,Speaker Unaware,15,Yes,1,Female,Yes,38,8,Speaker Unaware,11,11,0,0,NA,10,8,11,9,TRUE,0,low
344,32946,657,2219,survey-multi-choice,27,1038920,0.0-14.0-1.0,group4,5a,"{""Q0"":""Yes""}",explicit,Speaker Unaware,8,Yes,1,Female,Yes,38,13,Speaker Unaware,11,11,0,0,NA,10,8,11,9,TRUE,0,low
345,32946,639,2765,survey-multi-choice,9,420251,0.0-5.0-1.0,group4,5a,"{""Q0"":""Yes""}",explicit,Speaker Aware,10,Yes,1,Female,Yes,38,4,Speaker Aware,11,11,0,0,NA,10,8,11,9,TRUE,0,low
346,32946,661,2197,survey-multi-choice,31,1130415,0.0-16.0-1.0,group4,5a,"{""Q0"":""Yes""}",implicit,Speaker Aware,6,Yes,1,Female,Yes,38,15,Speaker Aware,11,11,0,0,NA,10,8,11,9,TRUE,0,low
347,32946,635,4853,survey-multi-choice,5,254560,0.0-3.0-1.0,group4,5a,"{""Q0"":""Yes""}",explicit,Speaker Aware,16,Yes,1,Female,Yes,38,2,Speaker Aware,11,11,0,0,NA,10,8,11,9,TRUE,0,low
348,32946,637,3884,survey-multi-choice,7,374718,0.0-4.0-1.0,group4,5a,"{""Q0"":""Yes""}",implicit,Speaker Aware,3,Yes,1,Female,Yes,38,3,Speaker Aware,11,11,0,0,NA,10,8,11,9,TRUE,0,low
349,32946,645,5639,survey-multi-choice,15,740280,0.0-8.0-1.0,group4,5a,"{""Q0"":""No""}",explicit,Speaker Unaware,5,No,0,Female,Yes,38,7,Speaker Unaware,11,11,0,0,NA,10,8,11,9,TRUE,0,low
350,32946,641,2405,survey-multi-choice,11,469348,0.0-6.0-1.0,group4,5a,"{""Q0"":""Yes""}",implicit,Speaker Aware,4,Yes,1,Female,Yes,38,5,Speaker Aware,11,11,0,0,NA,10,8,11,9,TRUE,0,low
351,32946,643,7172,survey-multi-choice,13,498997,0.0-7.0-1.0,group4,5a,"{""Q0"":""No""}",implicit,Speaker Unaware,13,No,0,Female,Yes,38,6,Speaker Unaware,11,11,0,0,NA,10,8,11,9,TRUE,0,low
352,32946,663,3069,survey-multi-choice,33,1167567,0.0-17.0-1.0,group4,5a,"{""Q0"":""No""}",implicit,Speaker Aware,1,No,0,Female,Yes,38,16,Speaker Aware,11,11,0,0,NA,10,8,11,9,TRUE,0,low
353,33096,683,2347,survey-multi-choice,11,846496,0.0-6.0-1.0,group2,5a,"{""Q0"":""No""}",explicit,Speaker Unaware,9,No,0,Male,Yes,36,5,Speaker Unaware,3,3,0,0,NA,10,9,3,9.5,TRUE,0,high
354,33096,681,2355,survey-multi-choice,9,838669,0.0-5.0-1.0,group2,5a,"{""Q0"":""No""}",implicit,Speaker Unaware,2,No,0,Male,Yes,36,4,Speaker Unaware,3,3,0,0,NA,10,9,3,9.5,TRUE,0,high
355,33096,685,4554,survey-multi-choice,13,854812,0.0-7.0-1.0,group2,5a,"{""Q0"":""No""}",implicit,Speaker Unaware,7,No,0,Male,Yes,36,6,Speaker Unaware,3,3,0,0,NA,10,9,3,9.5,TRUE,0,high
356,33096,705,3185,survey-multi-choice,33,984537,0.0-17.0-1.0,group2,5a,"{""Q0"":""Yes""}",explicit,Speaker Unaware,15,Yes,1,Male,Yes,36,16,Speaker Unaware,3,3,0,0,NA,10,9,3,9.5,TRUE,0,high
357,33096,679,3053,survey-multi-choice,7,831116,0.0-4.0-1.0,group2,5a,"{""Q0"":""Yes""}",implicit,Speaker Aware,11,Yes,1,Male,Yes,36,3,Speaker Aware,3,3,0,0,NA,10,9,3,9.5,TRUE,0,high
358,33096,703,1904,survey-multi-choice,31,977737,0.0-16.0-1.0,group2,5a,"{""Q0"":""No""}",explicit,Speaker Aware,4,No,0,Male,Yes,36,15,Speaker Aware,3,3,0,0,NA,10,9,3,9.5,TRUE,0,high
359,33096,691,1336,survey-multi-choice,19,880598,0.0-10.0-1.0,group2,5a,"{""Q0"":""Yes""}",implicit,Speaker Aware,10,Yes,1,Male,Yes,36,9,Speaker Aware,3,3,0,0,NA,10,9,3,9.5,TRUE,0,high
360,33096,687,6838,survey-multi-choice,15,869516,0.0-8.0-1.0,group2,5a,"{""Q0"":""No""}",implicit,Speaker Unaware,5,No,0,Male,Yes,36,7,Speaker Unaware,3,3,0,0,NA,10,9,3,9.5,TRUE,0,high
361,33096,677,1674,survey-multi-choice,5,160947,0.0-3.0-1.0,group2,5a,"{""Q0"":""Yes""}",implicit,Speaker Aware,16,Yes,1,Male,Yes,36,2,Speaker Aware,3,3,0,0,NA,10,9,3,9.5,TRUE,0,high
362,33096,701,4227,survey-multi-choice,29,971216,0.0-15.0-1.0,group2,5a,"{""Q0"":""Yes""}",explicit,Speaker Unaware,12,Yes,1,Male,Yes,36,14,Speaker Unaware,3,3,0,0,NA,10,9,3,9.5,TRUE,0,high
363,33096,699,3324,survey-multi-choice,27,963315,0.0-14.0-1.0,group2,5a,"{""Q0"":""Yes""}",explicit,Speaker Aware,1,Yes,1,Male,Yes,36,13,Speaker Aware,3,3,0,0,NA,10,9,3,9.5,TRUE,0,high
364,33096,693,1834,survey-multi-choice,21,885943,0.0-11.0-1.0,group2,5a,"{""Q0"":""Yes""}",implicit,Speaker Aware,14,Yes,1,Male,Yes,36,10,Speaker Aware,3,3,0,0,NA,10,9,3,9.5,TRUE,0,high
365,33096,689,1360,survey-multi-choice,17,876202,0.0-9.0-1.0,group2,5a,"{""Q0"":""No""}",implicit,Speaker Unaware,8,No,0,Male,Yes,36,8,Speaker Unaware,3,3,0,0,NA,10,9,3,9.5,TRUE,0,high
366,33096,675,8089,survey-multi-choice,3,144675,0.0-2.0-1.0,group2,5a,"{""Q0"":""Yes""}",explicit,Speaker Aware,6,Yes,1,Male,Yes,36,1,Speaker Aware,3,3,0,0,NA,10,9,3,9.5,TRUE,0,high
367,33096,697,3996,survey-multi-choice,25,945938,0.0-13.0-1.0,group2,5a,"{""Q0"":""Yes""}",explicit,Speaker Aware,3,Yes,1,Male,Yes,36,12,Speaker Aware,3,3,0,0,NA,10,9,3,9.5,TRUE,0,high
368,33096,695,3152,survey-multi-choice,23,892068,0.0-12.0-1.0,group2,5a,"{""Q0"":""No""}",explicit,Speaker Unaware,13,No,0,Male,Yes,36,11,Speaker Unaware,3,3,0,0,NA,10,9,3,9.5,TRUE,0,high
369,39458,729,2250,survey-multi-choice,15,168872,0.0-8.0-1.0,group2,5a,"{""Q0"":""No""}",implicit,Speaker Aware,14,No,0,Female,Yes,24,7,Speaker Aware,10,11,0,0,NA,10,9,10.5,9.5,TRUE,0,high
370,39458,731,1699,survey-multi-choice,17,186879,0.0-9.0-1.0,group2,5a,"{""Q0"":""Yes""}",explicit,Speaker Unaware,13,Yes,1,Female,Yes,24,8,Speaker Unaware,10,11,0,0,NA,10,9,10.5,9.5,TRUE,0,high
371,39458,727,2162,survey-multi-choice,13,144040,0.0-7.0-1.0,group2,5a,"{""Q0"":""No""}",explicit,Speaker Aware,1,No,0,Female,Yes,24,6,Speaker Aware,10,11,0,0,NA,10,9,10.5,9.5,TRUE,0,high
372,39458,723,2054,survey-multi-choice,9,97441,0.0-5.0-1.0,group2,5a,"{""Q0"":""Yes""}",explicit,Speaker Unaware,15,Yes,1,Female,Yes,24,4,Speaker Unaware,10,11,0,0,NA,10,9,10.5,9.5,TRUE,0,high
373,39458,725,1836,survey-multi-choice,11,125400,0.0-6.0-1.0,group2,5a,"{""Q0"":""Yes""}",explicit,Speaker Unaware,12,Yes,1,Female,Yes,24,5,Speaker Unaware,10,11,0,0,NA,10,9,10.5,9.5,TRUE,0,high
374,39458,733,3491,survey-multi-choice,19,209327,0.0-10.0-1.0,group2,5a,"{""Q0"":""No""}",implicit,Speaker Aware,16,No,0,Female,Yes,24,9,Speaker Aware,10,11,0,0,NA,10,9,10.5,9.5,TRUE,0,high
375,39458,721,3202,survey-multi-choice,7,80001,0.0-4.0-1.0,group2,5a,"{""Q0"":""No""}",explicit,Speaker Aware,3,No,0,Female,Yes,24,3,Speaker Aware,10,11,0,0,NA,10,9,10.5,9.5,TRUE,0,high
376,39458,747,3139,survey-multi-choice,33,373301,0.0-17.0-1.0,group2,5a,"{""Q0"":""No""}",explicit,Speaker Aware,4,No,0,Female,Yes,24,16,Speaker Aware,10,11,0,0,NA,10,9,10.5,9.5,TRUE,0,high
377,39458,739,4353,survey-multi-choice,25,288767,0.0-13.0-1.0,group2,5a,"{""Q0"":""Yes""}",implicit,Speaker Aware,10,Yes,1,Female,Yes,24,12,Speaker Aware,10,11,0,0,NA,10,9,10.5,9.5,TRUE,0,high
378,39458,735,1916,survey-multi-choice,21,233695,0.0-11.0-1.0,group2,5a,"{""Q0"":""Yes""}",implicit,Speaker Unaware,8,Yes,1,Female,Yes,24,10,Speaker Unaware,10,11,0,0,NA,10,9,10.5,9.5,TRUE,0,high
379,39458,719,3083,survey-multi-choice,5,61522,0.0-3.0-1.0,group2,5a,"{""Q0"":""Yes""}",implicit,Speaker Aware,11,Yes,1,Female,Yes,24,2,Speaker Aware,10,11,0,0,NA,10,9,10.5,9.5,TRUE,0,high
380,39458,737,6347,survey-multi-choice,23,259135,0.0-12.0-1.0,group2,5a,"{""Q0"":""No""}",implicit,Speaker Unaware,7,No,0,Female,Yes,24,11,Speaker Unaware,10,11,0,0,NA,10,9,10.5,9.5,TRUE,0,high
381,39458,745,3610,survey-multi-choice,31,347933,0.0-16.0-1.0,group2,5a,"{""Q0"":""No""}",explicit,Speaker Aware,6,No,0,Female,Yes,24,15,Speaker Aware,10,11,0,0,NA,10,9,10.5,9.5,TRUE,0,high
382,39458,741,2381,survey-multi-choice,27,303823,0.0-14.0-1.0,group2,5a,"{""Q0"":""Yes""}",explicit,Speaker Unaware,9,Yes,1,Female,Yes,24,13,Speaker Unaware,10,11,0,0,NA,10,9,10.5,9.5,TRUE,0,high
383,39458,717,2679,survey-multi-choice,3,38659,0.0-2.0-1.0,group2,5a,"{""Q0"":""Yes""}",implicit,Speaker Unaware,2,Yes,1,Female,Yes,24,1,Speaker Unaware,10,11,0,0,NA,10,9,10.5,9.5,TRUE,0,high
384,39458,743,3331,survey-multi-choice,29,335829,0.0-15.0-1.0,group2,5a,"{""Q0"":""Yes""}",implicit,Speaker Unaware,5,Yes,1,Female,Yes,24,14,Speaker Unaware,10,11,0,0,NA,10,9,10.5,9.5,TRUE,0,high
385,39803,765,5880,survey-multi-choice,9,184943,0.0-5.0-1.0,group3,5a,"{""Q0"":""Yes""}",implicit,Speaker Aware,8,Yes,1,Female,Yes,29,4,Speaker Aware,9,11,1,1,NA,10,9,10,9.5,TRUE,1,high
386,39803,761,2964,survey-multi-choice,5,115248,0.0-3.0-1.0,group3,5a,"{""Q0"":""Yes""}",implicit,Speaker Unaware,11,Yes,1,Female,Yes,29,2,Speaker Unaware,9,11,1,1,NA,10,9,10,9.5,TRUE,1,high
387,39803,763,3199,survey-multi-choice,7,149171,0.0-4.0-1.0,group3,5a,"{""Q0"":""Yes""}",implicit,Speaker Unaware,10,Yes,1,Female,Yes,29,3,Speaker Unaware,9,11,1,1,NA,10,9,10,9.5,TRUE,1,high
388,39803,767,3096,survey-multi-choice,11,216915,0.0-6.0-1.0,group3,5a,"{""Q0"":""No""}",implicit,Speaker Aware,7,No,0,Female,Yes,29,5,Speaker Aware,9,11,1,1,NA,10,9,10,9.5,TRUE,1,high
389,39803,769,8381,survey-multi-choice,13,242547,0.0-7.0-1.0,group3,5a,"{""Q0"":""Yes""}",implicit,Speaker Unaware,16,Yes,1,Female,Yes,29,6,Speaker Unaware,9,11,1,1,NA,10,9,10,9.5,TRUE,1,high
390,39803,783,3532,survey-multi-choice,27,545045,0.0-14.0-1.0,group3,5a,"{""Q0"":""No""}",explicit,Speaker Aware,9,No,0,Female,Yes,29,13,Speaker Aware,9,11,1,1,NA,10,9,10,9.5,TRUE,1,high
391,39803,787,2624,survey-multi-choice,31,612827,0.0-16.0-1.0,group3,5a,"{""Q0"":""No""}",explicit,Speaker Aware,15,No,0,Female,Yes,29,15,Speaker Aware,9,11,1,1,NA,10,9,10,9.5,TRUE,1,high
392,39803,759,3878,survey-multi-choice,3,90796,0.0-2.0-1.0,group3,5a,"{""Q0"":""No""}",explicit,Speaker Unaware,1,No,0,Female,Yes,29,1,Speaker Unaware,9,11,1,1,NA,10,9,10,9.5,TRUE,1,high
393,39803,781,1700,survey-multi-choice,25,509474,0.0-13.0-1.0,group3,5a,"{""Q0"":""Yes""}",implicit,Speaker Aware,2,Yes,1,Female,Yes,29,12,Speaker Aware,9,11,1,1,NA,10,9,10,9.5,TRUE,1,high
394,39803,773,2879,survey-multi-choice,17,394489,0.0-9.0-1.0,group3,5a,"{""Q0"":""Yes""}",explicit,Speaker Unaware,3,Yes,1,Female,Yes,29,8,Speaker Unaware,9,11,1,1,NA,10,9,10,9.5,TRUE,1,high
395,39803,785,4356,survey-multi-choice,29,583153,0.0-15.0-1.0,group3,5a,"{""Q0"":""No""}",explicit,Speaker Aware,13,No,0,Female,Yes,29,14,Speaker Aware,9,11,1,1,NA,10,9,10,9.5,TRUE,1,high
396,39803,789,2376,survey-multi-choice,33,645566,0.0-17.0-1.0,group3,5a,"{""Q0"":""No""}",implicit,Speaker Aware,5,No,0,Female,Yes,29,16,Speaker Aware,9,11,1,1,NA,10,9,10,9.5,TRUE,1,high
397,39803,779,2365,survey-multi-choice,23,481627,0.0-12.0-1.0,group3,5a,"{""Q0"":""Yes""}",implicit,Speaker Unaware,14,Yes,1,Female,Yes,29,11,Speaker Unaware,9,11,1,1,NA,10,9,10,9.5,TRUE,1,high
398,39803,777,2700,survey-multi-choice,21,460217,0.0-11.0-1.0,group3,5a,"{""Q0"":""Yes""}",explicit,Speaker Unaware,4,Yes,1,Female,Yes,29,10,Speaker Unaware,9,11,1,1,NA,10,9,10,9.5,TRUE,1,high
399,39803,771,2935,survey-multi-choice,15,358738,0.0-8.0-1.0,group3,5a,"{""Q0"":""Yes""}",explicit,Speaker Unaware,6,Yes,1,Female,Yes,29,7,Speaker Unaware,9,11,1,1,NA,10,9,10,9.5,TRUE,1,high
400,39803,775,1941,survey-multi-choice,19,422106,0.0-10.0-1.0,group3,5a,"{""Q0"":""No""}",explicit,Speaker Aware,12,No,0,Female,Yes,29,9,Speaker Aware,9,11,1,1,NA,10,9,10,9.5,TRUE,1,high
401,39914,2737,2735,survey-multi-choice,7,350814,0.0-4.0-1.0,group1,5a,"{""Q0"":""Yes""}",explicit,Speaker Aware,8,Yes,1,Female,Yes,28,3,Speaker Aware,8,7,0,0,NA,9,6,7.5,7.5,TRUE,0,low
402,39914,2739,1782,survey-multi-choice,9,387496,0.0-5.0-1.0,group1,5a,"{""Q0"":""Yes""}",explicit,Speaker Unaware,10,Yes,1,Female,Yes,28,4,Speaker Unaware,8,7,0,0,NA,9,6,7.5,7.5,TRUE,0,low
403,39914,2761,2004,survey-multi-choice,31,1193609,0.0-16.0-1.0,group1,5a,"{""Q0"":""Yes""}",implicit,Speaker Unaware,4,Yes,1,Female,Yes,28,15,Speaker Unaware,8,7,0,0,NA,9,6,7.5,7.5,TRUE,0,low
404,39914,2763,1412,survey-multi-choice,33,1202350,0.0-17.0-1.0,group1,5a,"{""Q0"":""No""}",explicit,Speaker Aware,7,No,0,Female,Yes,28,16,Speaker Aware,8,7,0,0,NA,9,6,7.5,7.5,TRUE,0,low
405,39914,2747,2489,survey-multi-choice,17,563818,0.0-9.0-1.0,group1,5a,"{""Q0"":""Yes""}",explicit,Speaker Unaware,16,Yes,1,Female,Yes,28,8,Speaker Unaware,8,7,0,0,NA,9,6,7.5,7.5,TRUE,0,low
406,39914,2749,4244,survey-multi-choice,19,677812,0.0-10.0-1.0,group1,5a,"{""Q0"":""No""}",explicit,Speaker Unaware,14,No,0,Female,Yes,28,9,Speaker Unaware,8,7,0,0,NA,9,6,7.5,7.5,TRUE,0,low
407,39914,2751,2770,survey-multi-choice,21,771196,0.0-11.0-1.0,group1,5a,"{""Q0"":""Yes""}",explicit,Speaker Aware,2,Yes,1,Female,Yes,28,10,Speaker Aware,8,7,0,0,NA,9,6,7.5,7.5,TRUE,0,low
408,39914,2753,2759,survey-multi-choice,23,834563,0.0-12.0-1.0,group1,5a,"{""Q0"":""No""}",explicit,Speaker Aware,5,No,0,Female,Yes,28,11,Speaker Aware,8,7,0,0,NA,9,6,7.5,7.5,TRUE,0,low
409,39914,2755,2131,survey-multi-choice,25,879696,0.0-13.0-1.0,group1,5a,"{""Q0"":""Yes""}",implicit,Speaker Aware,9,Yes,1,Female,Yes,28,12,Speaker Aware,8,7,0,0,NA,9,6,7.5,7.5,TRUE,0,low
410,39914,2757,1624,survey-multi-choice,27,1066168,0.0-14.0-1.0,group1,5a,"{""Q0"":""Yes""}",explicit,Speaker Unaware,11,Yes,1,Female,Yes,28,13,Speaker Unaware,8,7,0,0,NA,9,6,7.5,7.5,TRUE,0,low
411,39914,2759,1687,survey-multi-choice,29,1093480,0.0-15.0-1.0,group1,5a,"{""Q0"":""Yes""}",implicit,Speaker Aware,12,Yes,1,Female,Yes,28,14,Speaker Aware,8,7,0,0,NA,9,6,7.5,7.5,TRUE,0,low
412,39914,2733,4780,survey-multi-choice,3,94101,0.0-2.0-1.0,group1,5a,"{""Q0"":""No""}",implicit,Speaker Unaware,6,No,0,Female,Yes,28,1,Speaker Unaware,8,7,0,0,NA,9,6,7.5,7.5,TRUE,0,low
413,39914,2735,2591,survey-multi-choice,5,228899,0.0-3.0-1.0,group1,5a,"{""Q0"":""No""}",implicit,Speaker Unaware,3,No,0,Female,Yes,28,2,Speaker Unaware,8,7,0,0,NA,9,6,7.5,7.5,TRUE,0,low
414,39914,2745,2281,survey-multi-choice,15,555690,0.0-8.0-1.0,group1,5a,"{""Q0"":""Yes""}",implicit,Speaker Aware,13,Yes,1,Female,Yes,28,7,Speaker Aware,8,7,0,0,NA,9,6,7.5,7.5,TRUE,0,low
415,39914,2741,2076,survey-multi-choice,11,442260,0.0-6.0-1.0,group1,5a,"{""Q0"":""Yes""}",implicit,Speaker Aware,15,Yes,1,Female,Yes,28,5,Speaker Aware,8,7,0,0,NA,9,6,7.5,7.5,TRUE,0,low
416,39914,2743,2763,survey-multi-choice,13,508160,0.0-7.0-1.0,group1,5a,"{""Q0"":""No""}",implicit,Speaker Unaware,1,No,0,Female,Yes,28,6,Speaker Unaware,8,7,0,0,NA,9,6,7.5,7.5,TRUE,0,low
417,40360,829,2793,survey-multi-choice,31,2050999,0.0-16.0-1.0,group4,5a,"{""Q0"":""Yes""}",explicit,Speaker Aware,11,Yes,1,Female,Yes,29,15,Speaker Aware,8,6,1,1,NA,7,4,7,5.5,TRUE,1,low
418,40360,821,2063,survey-multi-choice,23,1717134,0.0-12.0-1.0,group4,5a,"{""Q0"":""Yes""}",implicit,Speaker Aware,3,Yes,1,Female,Yes,29,11,Speaker Aware,8,6,1,1,NA,7,4,7,5.5,TRUE,1,low
419,40360,823,40886,survey-multi-choice,25,1790321,0.0-13.0-1.0,group4,5a,"{""Q0"":""Yes""}",explicit,Speaker Aware,10,Yes,1,Female,Yes,29,12,Speaker Aware,8,6,1,1,NA,7,4,7,5.5,TRUE,1,low
420,40360,825,4338,survey-multi-choice,27,1862768,0.0-14.0-1.0,group4,5a,"{""Q0"":""Yes""}",implicit,Speaker Unaware,12,Yes,1,Female,Yes,29,13,Speaker Unaware,8,6,1,1,NA,7,4,7,5.5,TRUE,1,low
421,40360,831,3205,survey-multi-choice,33,2107555,0.0-17.0-1.0,group4,5a,"{""Q0"":""No""}",implicit,Speaker Aware,1,No,0,Female,Yes,29,16,Speaker Aware,8,6,1,1,NA,7,4,7,5.5,TRUE,1,low
422,40360,819,3262,survey-multi-choice,21,1634051,0.0-11.0-1.0,group4,5a,"{""Q0"":""Yes""}",explicit,Speaker Aware,14,Yes,1,Female,Yes,29,10,Speaker Aware,8,6,1,1,NA,7,4,7,5.5,TRUE,1,low
423,40360,817,2280,survey-multi-choice,19,1604399,0.0-10.0-1.0,group4,5a,"{""Q0"":""No""}",explicit,Speaker Unaware,7,No,0,Female,Yes,29,9,Speaker Unaware,8,6,1,1,NA,7,4,7,5.5,TRUE,1,low
424,40360,801,4757,survey-multi-choice,3,38058,0.0-2.0-1.0,group4,5a,"{""Q0"":""Yes""}",implicit,Speaker Aware,6,Yes,1,Female,Yes,29,1,Speaker Aware,8,6,1,1,NA,7,4,7,5.5,TRUE,1,low
425,40360,827,2805,survey-multi-choice,29,2020614,0.0-15.0-1.0,group4,5a,"{""Q0"":""Yes""}",explicit,Speaker Unaware,5,Yes,1,Female,Yes,29,14,Speaker Unaware,8,6,1,1,NA,7,4,7,5.5,TRUE,1,low
426,40360,809,5742,survey-multi-choice,11,715804,0.0-6.0-1.0,group4,5a,"{""Q0"":""Yes""}",implicit,Speaker Unaware,9,Yes,1,Female,Yes,29,5,Speaker Unaware,8,6,1,1,NA,7,4,7,5.5,TRUE,1,low
427,40360,805,3166,survey-multi-choice,7,595783,0.0-4.0-1.0,group4,5a,"{""Q0"":""Yes""}",explicit,Speaker Aware,16,Yes,1,Female,Yes,29,3,Speaker Aware,8,6,1,1,NA,7,4,7,5.5,TRUE,1,low
428,40360,807,7278,survey-multi-choice,9,650645,0.0-5.0-1.0,group4,5a,"{""Q0"":""No""}",implicit,Speaker Unaware,13,No,0,Female,Yes,29,4,Speaker Unaware,8,6,1,1,NA,7,4,7,5.5,TRUE,1,low
429,40360,803,4044,survey-multi-choice,5,480084,0.0-3.0-1.0,group4,5a,"{""Q0"":""No""}",explicit,Speaker Unaware,8,No,0,Female,Yes,29,2,Speaker Unaware,8,6,1,1,NA,7,4,7,5.5,TRUE,1,low
430,40360,815,3044,survey-multi-choice,17,1475424,0.0-9.0-1.0,group4,5a,"{""Q0"":""Yes""}",implicit,Speaker Aware,4,Yes,1,Female,Yes,29,8,Speaker Aware,8,6,1,1,NA,7,4,7,5.5,TRUE,1,low
431,40360,813,3614,survey-multi-choice,15,1254099,0.0-8.0-1.0,group4,5a,"{""Q0"":""Yes""}",implicit,Speaker Unaware,15,Yes,1,Female,Yes,29,7,Speaker Unaware,8,6,1,1,NA,7,4,7,5.5,TRUE,1,low
432,40360,811,4243,survey-multi-choice,13,1035153,0.0-7.0-1.0,group4,5a,"{""Q0"":""No""}",explicit,Speaker Unaware,2,No,0,Female,Yes,29,6,Speaker Unaware,8,6,1,1,NA,7,4,7,5.5,TRUE,1,low
433,41413,843,10973,survey-multi-choice,3,110423,0.0-2.0-1.0,group3,5a,"{""Q0"":""No""}",implicit,Speaker Unaware,16,No,0,Female,Yes,32,1,Speaker Unaware,5,6,0,0,NA,4,6,5.5,5,TRUE,0,low
434,41413,859,2779,survey-multi-choice,19,371119,0.0-10.0-1.0,group3,5a,"{""Q0"":""Yes""}",explicit,Speaker Aware,9,Yes,1,Female,Yes,32,9,Speaker Aware,5,6,0,0,NA,4,6,5.5,5,TRUE,0,low
435,41413,863,1861,survey-multi-choice,23,417991,0.0-12.0-1.0,group3,5a,"{""Q0"":""Yes""}",implicit,Speaker Aware,7,Yes,1,Female,Yes,32,11,Speaker Aware,5,6,0,0,NA,4,6,5.5,5,TRUE,0,low
436,41413,857,2118,survey-multi-choice,17,333744,0.0-9.0-1.0,group3,5a,"{""Q0"":""Yes""}",implicit,Speaker Aware,2,Yes,1,Female,Yes,32,8,Speaker Aware,5,6,0,0,NA,4,6,5.5,5,TRUE,0,low
437,41413,867,2420,survey-multi-choice,27,469774,0.0-14.0-1.0,group3,5a,"{""Q0"":""Yes""}",explicit,Speaker Aware,15,Yes,1,Female,Yes,32,13,Speaker Aware,5,6,0,0,NA,4,6,5.5,5,TRUE,0,low
438,41413,861,2860,survey-multi-choice,21,391971,0.0-11.0-1.0,group3,5a,"{""Q0"":""No""}",implicit,Speaker Unaware,11,No,0,Female,Yes,32,10,Speaker Unaware,5,6,0,0,NA,4,6,5.5,5,TRUE,0,low
439,41413,865,2922,survey-multi-choice,25,451048,0.0-13.0-1.0,group3,5a,"{""Q0"":""Yes""}",implicit,Speaker Aware,8,Yes,1,Female,Yes,32,12,Speaker Aware,5,6,0,0,NA,4,6,5.5,5,TRUE,0,low
440,41413,855,3691,survey-multi-choice,15,298847,0.0-8.0-1.0,group3,5a,"{""Q0"":""No""}",implicit,Speaker Unaware,14,No,0,Female,Yes,32,7,Speaker Unaware,5,6,0,0,NA,4,6,5.5,5,TRUE,0,low
441,41413,847,9293,survey-multi-choice,7,177933,0.0-4.0-1.0,group3,5a,"{""Q0"":""Yes""}",implicit,Speaker Aware,5,Yes,1,Female,Yes,32,3,Speaker Aware,5,6,0,0,NA,4,6,5.5,5,TRUE,0,low
442,41413,869,3751,survey-multi-choice,29,504628,0.0-15.0-1.0,group3,5a,"{""Q0"":""Yes""}",explicit,Speaker Unaware,1,Yes,1,Female,Yes,32,14,Speaker Unaware,5,6,0,0,NA,4,6,5.5,5,TRUE,0,low
443,41413,849,2792,survey-multi-choice,9,210063,0.0-5.0-1.0,group3,5a,"{""Q0"":""Yes""}",explicit,Speaker Unaware,3,Yes,1,Female,Yes,32,4,Speaker Unaware,5,6,0,0,NA,4,6,5.5,5,TRUE,0,low
444,41413,845,2778,survey-multi-choice,5,136349,0.0-3.0-1.0,group3,5a,"{""Q0"":""Yes""}",explicit,Speaker Unaware,4,Yes,1,Female,Yes,32,2,Speaker Unaware,5,6,0,0,NA,4,6,5.5,5,TRUE,0,low
445,41413,853,1668,survey-multi-choice,13,272384,0.0-7.0-1.0,group3,5a,"{""Q0"":""Yes""}",explicit,Speaker Unaware,6,Yes,1,Female,Yes,32,6,Speaker Unaware,5,6,0,0,NA,4,6,5.5,5,TRUE,0,low
446,41413,871,2181,survey-multi-choice,31,560943,0.0-16.0-1.0,group3,5a,"{""Q0"":""No""}",explicit,Speaker Aware,13,No,0,Female,Yes,32,15,Speaker Aware,5,6,0,0,NA,4,6,5.5,5,TRUE,0,low
447,41413,851,3037,survey-multi-choice,11,236295,0.0-6.0-1.0,group3,5a,"{""Q0"":""Yes""}",explicit,Speaker Aware,12,Yes,1,Female,Yes,32,5,Speaker Aware,5,6,0,0,NA,4,6,5.5,5,TRUE,0,low
448,41413,873,2886,survey-multi-choice,33,601896,0.0-17.0-1.0,group3,5a,"{""Q0"":""Yes""}",implicit,Speaker Unaware,10,Yes,1,Female,Yes,32,16,Speaker Unaware,5,6,0,0,NA,4,6,5.5,5,TRUE,0,low
449,41916,893,4211,survey-multi-choice,11,294930,0.0-6.0-1.0,group1,5a,"{""Q0"":""Yes""}",implicit,Speaker Unaware,6,Yes,1,Female,Yes,38,5,Speaker Unaware,9,9,0,0,NA,10,8,9,9,TRUE,0,low
450,41916,887,6558,survey-multi-choice,5,178498,0.0-3.0-1.0,group1,5a,"{""Q0"":""No""}",explicit,Speaker Aware,7,No,0,Female,Yes,38,2,Speaker Aware,9,9,0,0,NA,10,8,9,9,TRUE,0,low
451,41916,891,4313,survey-multi-choice,9,271929,0.0-5.0-1.0,group1,5a,"{""Q0"":""No""}",implicit,Speaker Aware,13,No,0,Female,Yes,38,4,Speaker Aware,9,9,0,0,NA,10,8,9,9,TRUE,0,low
452,41916,895,3754,survey-multi-choice,13,338297,0.0-7.0-1.0,group1,5a,"{""Q0"":""Yes""}",explicit,Speaker Aware,8,Yes,1,Female,Yes,38,6,Speaker Aware,9,9,0,0,NA,10,8,9,9,TRUE,0,low
453,41916,885,7750,survey-multi-choice,3,129861,0.0-2.0-1.0,group1,5a,"{""Q0"":""Yes""}",explicit,Speaker Unaware,11,Yes,1,Female,Yes,38,1,Speaker Unaware,9,9,0,0,NA,10,8,9,9,TRUE,0,low
454,41916,889,5165,survey-multi-choice,7,228277,0.0-4.0-1.0,group1,5a,"{""Q0"":""No""}",explicit,Speaker Aware,2,No,0,Female,Yes,38,3,Speaker Aware,9,9,0,0,NA,10,8,9,9,TRUE,0,low
455,41916,897,4228,survey-multi-choice,15,374068,0.0-8.0-1.0,group1,5a,"{""Q0"":""Yes""}",explicit,Speaker Unaware,10,Yes,1,Female,Yes,38,7,Speaker Unaware,9,9,0,0,NA,10,8,9,9,TRUE,0,low
456,41916,903,4077,survey-multi-choice,21,520527,0.0-11.0-1.0,group1,5a,"{""Q0"":""Yes""}",explicit,Speaker Unaware,14,Yes,1,Female,Yes,38,10,Speaker Unaware,9,9,0,0,NA,10,8,9,9,TRUE,0,low
457,41916,899,7947,survey-multi-choice,17,422153,0.0-9.0-1.0,group1,5a,"{""Q0"":""No""}",explicit,Speaker Unaware,16,No,0,Female,Yes,38,8,Speaker Unaware,9,9,0,0,NA,10,8,9,9,TRUE,0,low
458,41916,915,3048,survey-multi-choice,33,761424,0.0-17.0-1.0,group1,5a,"{""Q0"":""Yes""}",implicit,Speaker Unaware,1,Yes,1,Female,Yes,38,16,Speaker Unaware,9,9,0,0,NA,10,8,9,9,TRUE,0,low
459,41916,911,4057,survey-multi-choice,29,676884,0.0-15.0-1.0,group1,5a,"{""Q0"":""No""}",implicit,Speaker Aware,9,No,0,Female,Yes,38,14,Speaker Aware,9,9,0,0,NA,10,8,9,9,TRUE,0,low
460,41916,905,3443,survey-multi-choice,23,573711,0.0-12.0-1.0,group1,5a,"{""Q0"":""Yes""}",implicit,Speaker Unaware,3,Yes,1,Female,Yes,38,11,Speaker Unaware,9,9,0,0,NA,10,8,9,9,TRUE,0,low
461,41916,913,4281,survey-multi-choice,31,718472,0.0-16.0-1.0,group1,5a,"{""Q0"":""Yes""}",implicit,Speaker Unaware,4,Yes,1,Female,Yes,38,15,Speaker Unaware,9,9,0,0,NA,10,8,9,9,TRUE,0,low
462,41916,901,5302,survey-multi-choice,19,478691,0.0-10.0-1.0,group1,5a,"{""Q0"":""No""}",explicit,Speaker Aware,5,No,0,Female,Yes,38,9,Speaker Aware,9,9,0,0,NA,10,8,9,9,TRUE,0,low
463,41916,909,2746,survey-multi-choice,27,647131,0.0-14.0-1.0,group1,5a,"{""Q0"":""No""}",implicit,Speaker Aware,12,No,0,Female,Yes,38,13,Speaker Aware,9,9,0,0,NA,10,8,9,9,TRUE,0,low
464,41916,907,5370,survey-multi-choice,25,614400,0.0-13.0-1.0,group1,5a,"{""Q0"":""Yes""}",implicit,Speaker Aware,15,Yes,1,Female,Yes,38,12,Speaker Aware,9,9,0,0,NA,10,8,9,9,TRUE,0,low
465,43699,2777,4555,survey-multi-choice,5,127164,0.0-3.0-1.0,group2,5a,"{""Q0"":""No""}",explicit,Speaker Aware,6,No,0,Male,Yes,30,2,Speaker Aware,9,11,0,0,NA,8,8,10,8,TRUE,0,low
466,43699,2775,9948,survey-multi-choice,3,104867,0.0-2.0-1.0,group2,5a,"{""Q0"":""Yes""}",implicit,Speaker Aware,10,Yes,1,Male,Yes,30,1,Speaker Aware,9,11,0,0,NA,8,8,10,8,TRUE,0,low
467,43699,2785,2099,survey-multi-choice,13,282754,0.0-7.0-1.0,group2,5a,"{""Q0"":""Yes""}",implicit,Speaker Aware,16,Yes,1,Male,Yes,30,6,Speaker Aware,9,11,0,0,NA,8,8,10,8,TRUE,0,low
468,43699,2787,2148,survey-multi-choice,15,303105,0.0-8.0-1.0,group2,5a,"{""Q0"":""No""}",implicit,Speaker Aware,11,No,0,Male,Yes,30,7,Speaker Aware,9,11,0,0,NA,8,8,10,8,TRUE,0,low
469,43699,2789,2070,survey-multi-choice,17,329486,0.0-9.0-1.0,group2,5a,"{""Q0"":""Yes""}",explicit,Speaker Unaware,15,Yes,1,Male,Yes,30,8,Speaker Unaware,9,11,0,0,NA,8,8,10,8,TRUE,0,low
470,43699,2791,1459,survey-multi-choice,19,372034,0.0-10.0-1.0,group2,5a,"{""Q0"":""No""}",explicit,Speaker Unaware,12,No,0,Male,Yes,30,9,Speaker Unaware,9,11,0,0,NA,8,8,10,8,TRUE,0,low
471,43699,2793,4215,survey-multi-choice,21,400744,0.0-11.0-1.0,group2,5a,"{""Q0"":""Yes""}",implicit,Speaker Unaware,2,Yes,1,Male,Yes,30,10,Speaker Unaware,9,11,0,0,NA,8,8,10,8,TRUE,0,low
472,43699,2795,5142,survey-multi-choice,23,439568,0.0-12.0-1.0,group2,5a,"{""Q0"":""No""}",implicit,Speaker Unaware,7,No,0,Male,Yes,30,11,Speaker Unaware,9,11,0,0,NA,8,8,10,8,TRUE,0,low
473,43699,2797,13182,survey-multi-choice,25,457163,0.0-13.0-1.0,group2,5a,"{""Q0"":""No""}",explicit,Speaker Unaware,13,No,0,Male,Yes,30,12,Speaker Unaware,9,11,0,0,NA,8,8,10,8,TRUE,0,low
474,43699,2799,1360,survey-multi-choice,27,470383,0.0-14.0-1.0,group2,5a,"{""Q0"":""No""}",explicit,Speaker Aware,4,No,0,Male,Yes,30,13,Speaker Aware,9,11,0,0,NA,8,8,10,8,TRUE,0,low
475,43699,2801,1923,survey-multi-choice,29,493680,0.0-15.0-1.0,group2,5a,"{""Q0"":""No""}",explicit,Speaker Aware,3,No,0,Male,Yes,30,14,Speaker Aware,9,11,0,0,NA,8,8,10,8,TRUE,0,low
476,43699,2803,1857,survey-multi-choice,31,518521,0.0-16.0-1.0,group2,5a,"{""Q0"":""No""}",explicit,Speaker Aware,1,No,0,Male,Yes,30,15,Speaker Aware,9,11,0,0,NA,8,8,10,8,TRUE,0,low
477,43699,2779,2485,survey-multi-choice,7,201616,0.0-4.0-1.0,group2,5a,"{""Q0"":""Yes""}",implicit,Speaker Unaware,5,Yes,1,Male,Yes,30,3,Speaker Unaware,9,11,0,0,NA,8,8,10,8,TRUE,0,low
478,43699,2781,2338,survey-multi-choice,9,241645,0.0-5.0-1.0,group2,5a,"{""Q0"":""Yes""}",implicit,Speaker Unaware,8,Yes,1,Male,Yes,30,4,Speaker Unaware,9,11,0,0,NA,8,8,10,8,TRUE,0,low
479,43699,2783,3057,survey-multi-choice,11,256629,0.0-6.0-1.0,group2,5a,"{""Q0"":""No""}",explicit,Speaker Unaware,9,No,0,Male,Yes,30,5,Speaker Unaware,9,11,0,0,NA,8,8,10,8,TRUE,0,low
480,43699,2805,1303,survey-multi-choice,33,583086,0.0-17.0-1.0,group2,5a,"{""Q0"":""No""}",implicit,Speaker Aware,14,No,0,Male,Yes,30,16,Speaker Aware,9,11,0,0,NA,8,8,10,8,TRUE,0,low
481,48258,2847,3530,survey-multi-choice,33,1532917,0.0-17.0-1.0,group1,5a,"{""Q0"":""Yes""}",implicit,Speaker Aware,9,Yes,1,Male,Yes,29,16,Speaker Aware,12,12,0,1,1,8,8,12,8,FALSE,1,low
482,48258,2821,3314,survey-multi-choice,7,340946,0.0-4.0-1.0,group1,5a,"{""Q0"":""Yes""}",explicit,Speaker Aware,7,Yes,1,Male,Yes,29,3,Speaker Aware,12,12,0,1,1,8,8,12,8,FALSE,1,low
483,48258,2823,6150,survey-multi-choice,9,403915,0.0-5.0-1.0,group1,5a,"{""Q0"":""No""}",explicit,Speaker Unaware,14,No,0,Male,Yes,29,4,Speaker Unaware,12,12,0,1,1,8,8,12,8,FALSE,1,low
484,48258,2827,26641,survey-multi-choice,13,507697,0.0-7.0-1.0,group1,5a,"{""Q0"":""No""}",implicit,Speaker Unaware,3,No,0,Male,Yes,29,6,Speaker Unaware,12,12,0,1,1,8,8,12,8,FALSE,1,low
485,48258,2829,4201,survey-multi-choice,15,560091,0.0-8.0-1.0,group1,5a,"{""Q0"":""Yes""}",implicit,Speaker Unaware,1,Yes,1,Male,Yes,29,7,Speaker Unaware,12,12,0,1,1,8,8,12,8,FALSE,1,low
486,48258,2831,1959,survey-multi-choice,17,634854,0.0-9.0-1.0,group1,5a,"{""Q0"":""Yes""}",explicit,Speaker Unaware,16,Yes,1,Male,Yes,29,8,Speaker Unaware,12,12,0,1,1,8,8,12,8,FALSE,1,low
487,48258,2825,1957,survey-multi-choice,11,450647,0.0-6.0-1.0,group1,5a,"{""Q0"":""Yes""}",implicit,Speaker Aware,15,Yes,1,Male,Yes,29,5,Speaker Aware,12,12,0,1,1,8,8,12,8,FALSE,1,low
488,48258,2835,3548,survey-multi-choice,21,954445,0.0-11.0-1.0,group1,5a,"{""Q0"":""Yes""}",implicit,Speaker Unaware,4,Yes,1,Male,Yes,29,10,Speaker Unaware,12,12,0,1,1,8,8,12,8,FALSE,1,low
489,48258,2837,2254,survey-multi-choice,23,1066544,0.0-12.0-1.0,group1,5a,"{""Q0"":""No""}",explicit,Speaker Aware,5,No,0,Male,Yes,29,11,Speaker Aware,12,12,0,1,1,8,8,12,8,FALSE,1,low
490,48258,2839,2238,survey-multi-choice,25,1215595,0.0-13.0-1.0,group1,5a,"{""Q0"":""Yes""}",explicit,Speaker Unaware,11,Yes,1,Male,Yes,29,12,Speaker Unaware,12,12,0,1,1,8,8,12,8,FALSE,1,low
491,48258,2833,1844,survey-multi-choice,19,749783,0.0-10.0-1.0,group1,5a,"{""Q0"":""No""}",explicit,Speaker Aware,2,No,0,Male,Yes,29,9,Speaker Aware,12,12,0,1,1,8,8,12,8,FALSE,1,low
492,48258,2817,18968,survey-multi-choice,3,217169,0.0-2.0-1.0,group1,5a,"{""Q0"":""No""}",implicit,Speaker Unaware,6,No,0,Male,Yes,29,1,Speaker Unaware,12,12,0,1,1,8,8,12,8,FALSE,1,low
493,48258,2819,6937,survey-multi-choice,5,311287,0.0-3.0-1.0,group1,5a,"{""Q0"":""No""}",implicit,Speaker Aware,13,No,0,Male,Yes,29,2,Speaker Aware,12,12,0,1,1,8,8,12,8,FALSE,1,low
494,48258,2845,2002,survey-multi-choice,31,1400955,0.0-16.0-1.0,group1,5a,"{""Q0"":""No""}",explicit,Speaker Aware,8,No,0,Male,Yes,29,15,Speaker Aware,12,12,0,1,1,8,8,12,8,FALSE,1,low
495,48258,2841,2421,survey-multi-choice,27,1271646,0.0-14.0-1.0,group1,5a,"{""Q0"":""No""}",implicit,Speaker Aware,12,No,0,Male,Yes,29,13,Speaker Aware,12,12,0,1,1,8,8,12,8,FALSE,1,low
496,48258,2843,3781,survey-multi-choice,29,1346976,0.0-15.0-1.0,group1,5a,"{""Q0"":""Yes""}",explicit,Speaker Unaware,10,Yes,1,Male,Yes,29,14,Speaker Unaware,12,12,0,1,1,8,8,12,8,FALSE,1,low
497,50019,939,24988,survey-multi-choice,15,201722,0.0-8.0-1.0,group2,5a,"{""Q0"":""Yes""}",implicit,Speaker Aware,16,Yes,1,Male,Yes,26,7,Speaker Aware,1,2,0,0,NA,7,6,1.5,6.5,TRUE,0,low
498,50019,935,18572,survey-multi-choice,11,154787,0.0-6.0-1.0,group2,5a,"{""Q0"":""No""}",implicit,Speaker Unaware,5,No,0,Male,Yes,26,5,Speaker Unaware,1,2,0,0,NA,7,6,1.5,6.5,TRUE,0,low
499,50019,941,5781,survey-multi-choice,17,212300,0.0-9.0-1.0,group2,5a,"{""Q0"":""No""}",implicit,Speaker Unaware,7,No,0,Male,Yes,26,8,Speaker Unaware,1,2,0,0,NA,7,6,1.5,6.5,TRUE,0,low
500,50019,943,6696,survey-multi-choice,19,1063051,0.0-10.0-1.0,group2,5a,"{""Q0"":""No""}",explicit,Speaker Unaware,13,No,0,Male,Yes,26,9,Speaker Unaware,1,2,0,0,NA,7,6,1.5,6.5,TRUE,0,low
501,50019,945,24930,survey-multi-choice,21,1101238,0.0-11.0-1.0,group2,5a,"{""Q0"":""Yes""}",implicit,Speaker Aware,10,Yes,1,Male,Yes,26,10,Speaker Aware,1,2,0,0,NA,7,6,1.5,6.5,TRUE,0,low
502,50019,937,12728,survey-multi-choice,13,171974,0.0-7.0-1.0,group2,5a,"{""Q0"":""No""}",explicit,Speaker Unaware,15,No,0,Male,Yes,26,6,Speaker Unaware,1,2,0,0,NA,7,6,1.5,6.5,TRUE,0,low
503,50019,951,4912,survey-multi-choice,27,1169701,0.0-14.0-1.0,group2,5a,"{""Q0"":""No""}",implicit,Speaker Unaware,2,No,0,Male,Yes,26,13,Speaker Unaware,1,2,0,0,NA,7,6,1.5,6.5,TRUE,0,low
504,50019,931,17878,survey-multi-choice,7,116245,0.0-4.0-1.0,group2,5a,"{""Q0"":""No""}",explicit,Speaker Aware,1,No,0,Male,Yes,26,3,Speaker Aware,1,2,0,0,NA,7,6,1.5,6.5,TRUE,0,low
505,50019,949,1501,survey-multi-choice,25,1156904,0.0-13.0-1.0,group2,5a,"{""Q0"":""Yes""}",explicit,Speaker Aware,6,Yes,1,Male,Yes,26,12,Speaker Aware,1,2,0,0,NA,7,6,1.5,6.5,TRUE,0,low
506,50019,927,13306,survey-multi-choice,3,52750,0.0-2.0-1.0,group2,5a,"{""Q0"":""No""}",explicit,Speaker Aware,4,No,0,Male,Yes,26,1,Speaker Aware,1,2,0,0,NA,7,6,1.5,6.5,TRUE,0,low
507,50019,933,4866,survey-multi-choice,9,128126,0.0-5.0-1.0,group2,5a,"{""Q0"":""No""}",explicit,Speaker Aware,3,No,0,Male,Yes,26,4,Speaker Aware,1,2,0,0,NA,7,6,1.5,6.5,TRUE,0,low
508,50019,947,5552,survey-multi-choice,23,1132545,0.0-12.0-1.0,group2,5a,"{""Q0"":""No""}",implicit,Speaker Unaware,8,No,0,Male,Yes,26,11,Speaker Unaware,1,2,0,0,NA,7,6,1.5,6.5,TRUE,0,low
509,50019,957,5236,survey-multi-choice,33,1236305,0.0-17.0-1.0,group2,5a,"{""Q0"":""No""}",explicit,Speaker Unaware,12,No,0,Male,Yes,26,16,Speaker Unaware,1,2,0,0,NA,7,6,1.5,6.5,TRUE,0,low
510,50019,929,9167,survey-multi-choice,5,92073,0.0-3.0-1.0,group2,5a,"{""Q0"":""No""}",explicit,Speaker Unaware,9,No,0,Male,Yes,26,2,Speaker Unaware,1,2,0,0,NA,7,6,1.5,6.5,TRUE,0,low
511,50019,955,2056,survey-multi-choice,31,1221604,0.0-16.0-1.0,group2,5a,"{""Q0"":""Yes""}",implicit,Speaker Aware,11,Yes,1,Male,Yes,26,15,Speaker Aware,1,2,0,0,NA,7,6,1.5,6.5,TRUE,0,low
512,50019,953,11865,survey-multi-choice,29,1204178,0.0-15.0-1.0,group2,5a,"{""Q0"":""No""}",implicit,Speaker Aware,14,No,0,Male,Yes,26,14,Speaker Aware,1,2,0,0,NA,7,6,1.5,6.5,TRUE,0,low
513,56150,2861,10132,survey-multi-choice,5,99457,0.0-3.0-1.0,group4,5a,"{""Q0"":""Yes""}",explicit,Speaker Aware,14,Yes,1,Female,Yes,47,2,Speaker Aware,4,5,0,0,NA,6,6,4.5,6,TRUE,0,low
514,56150,2859,5307,survey-multi-choice,3,82049,0.0-2.0-1.0,group4,5a,"{""Q0"":""No""}",implicit,Speaker Unaware,12,No,0,Female,Yes,47,1,Speaker Unaware,4,5,0,0,NA,6,6,4.5,6,TRUE,0,low
515,56150,2869,3283,survey-multi-choice,13,151522,0.0-7.0-1.0,group4,5a,"{""Q0"":""Yes""}",explicit,Speaker Aware,11,Yes,1,Female,Yes,47,6,Speaker Aware,4,5,0,0,NA,6,6,4.5,6,TRUE,0,low
516,56150,2863,9949,survey-multi-choice,7,115501,0.0-4.0-1.0,group4,5a,"{""Q0"":""Yes""}",explicit,Speaker Aware,10,Yes,1,Female,Yes,47,3,Speaker Aware,4,5,0,0,NA,6,6,4.5,6,TRUE,0,low
517,56150,2865,3304,survey-multi-choice,9,126375,0.0-5.0-1.0,group4,5a,"{""Q0"":""Yes""}",explicit,Speaker Unaware,5,Yes,1,Female,Yes,47,4,Speaker Unaware,4,5,0,0,NA,6,6,4.5,6,TRUE,0,low
518,56150,2867,4587,survey-multi-choice,11,134510,0.0-6.0-1.0,group4,5a,"{""Q0"":""No""}",implicit,Speaker Unaware,9,No,0,Female,Yes,47,5,Speaker Unaware,4,5,0,0,NA,6,6,4.5,6,TRUE,0,low
519,56150,2877,1380,survey-multi-choice,21,183418,0.0-11.0-1.0,group4,5a,"{""Q0"":""Yes""}",explicit,Speaker Unaware,8,Yes,1,Female,Yes,47,10,Speaker Unaware,4,5,0,0,NA,6,6,4.5,6,TRUE,0,low
520,56150,2871,12811,survey-multi-choice,15,167232,0.0-8.0-1.0,group4,5a,"{""Q0"":""No""}",explicit,Speaker Unaware,7,No,0,Female,Yes,47,7,Speaker Unaware,4,5,0,0,NA,6,6,4.5,6,TRUE,0,low
521,56150,2873,2226,survey-multi-choice,17,173914,0.0-9.0-1.0,group4,5a,"{""Q0"":""No""}",explicit,Speaker Aware,16,No,0,Female,Yes,47,8,Speaker Aware,4,5,0,0,NA,6,6,4.5,6,TRUE,0,low
522,56150,2875,1985,survey-multi-choice,19,178973,0.0-10.0-1.0,group4,5a,"{""Q0"":""No""}",implicit,Speaker Aware,4,No,0,Female,Yes,47,9,Speaker Aware,4,5,0,0,NA,6,6,4.5,6,TRUE,0,low
523,56150,2885,1273,survey-multi-choice,29,233018,0.0-15.0-1.0,group4,5a,"{""Q0"":""No""}",explicit,Speaker Unaware,2,No,0,Female,Yes,47,14,Speaker Unaware,4,5,0,0,NA,6,6,4.5,6,TRUE,0,low
524,56150,2887,4195,survey-multi-choice,31,240727,0.0-16.0-1.0,group4,5a,"{""Q0"":""Yes""}",implicit,Speaker Aware,1,Yes,1,Female,Yes,47,15,Speaker Aware,4,5,0,0,NA,6,6,4.5,6,TRUE,0,low
525,56150,2889,3741,survey-multi-choice,33,248072,0.0-17.0-1.0,group4,5a,"{""Q0"":""Yes""}",implicit,Speaker Unaware,15,Yes,1,Female,Yes,47,16,Speaker Unaware,4,5,0,0,NA,6,6,4.5,6,TRUE,0,low
526,56150,2881,3447,survey-multi-choice,25,223882,0.0-13.0-1.0,group4,5a,"{""Q0"":""No""}",implicit,Speaker Unaware,13,No,0,Female,Yes,47,12,Speaker Unaware,4,5,0,0,NA,6,6,4.5,6,TRUE,0,low
527,56150,2883,1806,survey-multi-choice,27,228829,0.0-14.0-1.0,group4,5a,"{""Q0"":""Yes""}",implicit,Speaker Aware,6,Yes,1,Female,Yes,47,13,Speaker Aware,4,5,0,0,NA,6,6,4.5,6,TRUE,0,low
528,56150,2879,30799,survey-multi-choice,23,217123,0.0-12.0-1.0,group4,5a,"{""Q0"":""Yes""}",implicit,Speaker Aware,3,Yes,1,Female,Yes,47,11,Speaker Aware,4,5,0,0,NA,6,6,4.5,6,TRUE,0,low
529,57842,975,2125,survey-multi-choice,9,687170,0.0-5.0-1.0,group1,5a,"{""Q0"":""Yes""}",explicit,Speaker Aware,2,Yes,1,Female,Yes,33,4,Speaker Aware,7,7,0,0,NA,6,5,7,5.5,TRUE,0,low
